message_type,pc_time_s,sensor_time_startup_ns,imu_accel_x_mps2,imu_accel_y_mps2,imu_accel_z_mps2,imu_gyro_x_radps,imu_gyro_y_radps,imu_gyro_z_radps,gnss_lat_deg,gnss_lon_deg,gnss_alt_m,gnss_vel_n_mps,gnss_vel_e_mps,gnss_vel_d_mps,gnss_fix,gnss_num_sats
imu,1776824834.7088733,1239931257000,0.992011547088623,0.4119076132774353,-9.829626083374023,2.553969144821167,-0.3451220691204071,0.6612446904182434,,,,,,,,
imu,1776824834.7184753,1239941257000,0.6783944964408875,-0.10218886286020279,-8.691344261169434,3.1139895915985107,-0.2884972095489502,0.4563843905925751,,,,,,,,
imu,1776824834.7281485,1239951257000,-0.2644881308078766,-1.128696322441101,-9.458989143371582,3.1919004917144775,-0.47763949632644653,0.37662801146507263,,,,,,,,
imu,1776824834.7378988,1239961257000,1.7039098739624023,-1.8661805391311646,-12.616938591003418,2.3571438789367676,-0.3271709978580475,0.1819944530725479,,,,,,,,
imu,1776824834.7477944,1239971257000,0.5718860030174255,-1.9028332233428955,-10.995734214782715,3.1208810806274414,-0.15172716975212097,0.050520654767751694,,,,,,,,
imu,1776824834.7579257,1239981257000,-1.985378623008728,-1.7665525674819946,-9.3240966796875,2.782590866088867,-0.15195384621620178,0.1319531500339508,,,,,,,,
imu,1776824834.7676601,1239991257000,-1.5183181762695312,-2.3860418796539307,-7.5672383308410645,1.7825032472610474,-0.258248507976532,0.4595710039138794,,,,,,,,
imu,1776824834.7776382,1240001257000,-1.4374537467956543,-2.62353777885437,-8.195409774780273,1.071178674697876,-0.38486945629119873,0.5530927777290344,,,,,,,,
imu,1776824834.7884843,1240011257000,-0.7178947925567627,-2.233102321624756,-8.15552043914795,0.20920240879058838,-0.36165401339530945,0.5256410241127014,40.421934,-86.9035603,202.565,0.11400000005960464,0.19099999964237213,0.23600000143051147,3,9
imu,1776824834.797175,1240021257000,0.24741749465465546,-4.132199287414551,-10.138941764831543,0.1934366375207901,-0.3923758566379547,0.6235787868499756,40.421934,-86.9035603,202.565,0.11400000005960464,0.19099999964237213,0.23600000143051147,3,9
imu,1776824834.8071363,1240031257000,0.656566321849823,-4.871921062469482,-11.861143112182617,-0.30410587787628174,-0.19121932983398438,0.5743537545204163,40.421934,-86.9035603,202.565,0.11400000005960464,0.19099999964237213,0.23600000143051147,3,9
imu,1776824834.8169808,1240041257000,-0.8642457723617554,-7.944344997406006,-12.630648612976074,-0.5881168842315674,0.10155972838401794,0.7732346057891846,40.421934,-86.9035603,202.565,0.11400000005960464,0.19099999964237213,0.23600000143051147,3,9
imu,1776824834.8275404,1240051257000,-0.8213290572166443,-5.439525604248047,-12.176973342895508,1.1487046480178833,0.15993210673332214,0.2600337862968445,40.421934,-86.9035603,202.565,0.11400000005960464,0.19099999964237213,0.23600000143051147,3,9
imu,1776824834.8374481,1240061257000,-1.0684864521026611,-1.7843289375305176,-11.454192161560059,3.8157289028167725,0.18417340517044067,-0.3459361791610718,40.421934,-86.9035603,202.565,0.11400000005960464,0.19099999964237213,0.23600000143051147,3,9
imu,1776824834.8472097,1240071257000,-0.6665151715278625,-0.6211837530136108,-8.833807945251465,3.8933465480804443,0.2738755941390991,-0.44955193996429443,40.421934,-86.9035603,202.565,0.11400000005960464,0.19099999964237213,0.23600000143051147,3,9
imu,1776824834.8569996,1240081257000,-1.1015636920928955,-1.5791749954223633,-7.441874980926514,2.6457936763763428,0.503032386302948,0.1043134406208992,40.421934,-86.9035603,202.565,0.11400000005960464,0.19099999964237213,0.23600000143051147,3,9
imu,1776824834.8669286,1240091257000,-0.6844210028648376,-2.0926311016082764,-6.956881046295166,1.8587429523468018,0.5186530351638794,0.4967767298221588,40.421934,-86.9035603,202.565,0.11400000005960464,0.19099999964237213,0.23600000143051147,3,9
imu,1776824834.8766685,1240101257000,-0.23604132235050201,-4.396062850952148,-7.110876560211182,1.24274742603302,0.377200722694397,0.7139347195625305,40.421934,-86.9035603,202.565,0.11400000005960464,0.19099999964237213,0.23600000143051147,3,9
imu,1776824834.886292,1240111257000,-0.1256503462791443,-5.628110408782959,-7.8564581871032715,-0.3018074035644531,0.4312216341495514,0.4900890290737152,40.421934,-86.9035603,202.565,0.11400000005960464,0.19099999964237213,0.23600000143051147,3,9
imu,1776824834.8961747,1240121257000,-0.6990503668785095,-4.968460559844971,-7.536723613739014,-1.5162725448608398,0.5290865302085876,0.3694400191307068,40.421934,-86.9035603,202.565,0.11400000005960464,0.19099999964237213,0.23600000143051147,3,9
imu,1776824834.9068725,1240131256000,-1.1411107778549194,-4.872127532958984,-8.236491203308105,-1.910465121269226,0.24684269726276398,0.3078416585922241,40.421934,-86.9035603,202.565,0.11400000005960464,0.19099999964237213,0.23600000143051147,3,9
imu,1776824834.9167795,1240141257000,-0.8630689382553101,-4.735540866851807,-9.806782722473145,-1.9330693483352661,0.16922560334205627,0.16580775380134583,40.421934,-86.9035603,202.565,0.11400000005960464,0.19099999964237213,0.23600000143051147,3,9
imu,1776824834.926636,1240151257000,-0.2737472653388977,-4.849598407745361,-8.812324523925781,-1.8005794286727905,0.07087673246860504,-0.07332294434309006,40.421934,-86.9035603,202.565,0.11400000005960464,0.19099999964237213,0.23600000143051147,3,9
imu,1776824834.93637,1240161257000,-0.5551424622535706,-4.349415302276611,-9.531216621398926,-0.9900118112564087,-0.1989014893770218,-0.45812785625457764,40.421934,-86.9035603,202.565,0.11400000005960464,0.19099999964237213,0.23600000143051147,3,9
imu,1776824834.9461365,1240171257000,-0.12097249180078506,-3.0526199340820312,-8.441458702087402,-0.7295908331871033,-0.400654673576355,-0.6523180603981018,40.421934,-86.9035603,202.565,0.11400000005960464,0.19099999964237213,0.23600000143051147,3,9
imu,1776824834.9561145,1240181257000,-0.16592708230018616,-3.586059808731079,-8.243155479431152,0.018635030835866928,-0.611463725566864,-0.6236372590065002,40.421934,-86.9035603,202.565,0.11400000005960464,0.19099999964237213,0.23600000143051147,3,9
imu,1776824834.965873,1240191257000,-0.6817562580108643,-3.4345197677612305,-8.444570541381836,0.18644706904888153,-0.6723960041999817,-0.7927380204200745,40.421934,-86.9035603,202.565,0.11400000005960464,0.19099999964237213,0.23600000143051147,3,9
imu,1776824834.9756815,1240201257000,-1.0024000406265259,-2.3601572513580322,-9.029147148132324,0.38172075152397156,-0.8333838582038879,-0.8181005716323853,40.421934,-86.9035603,202.565,0.11400000005960464,0.19099999964237213,0.23600000143051147,3,9
imu,1776824834.985611,1240211257000,-0.4101657271385193,-2.630675792694092,-9.208340644836426,-0.019770493730902672,-0.737729549407959,-0.6568097472190857,40.421934,-86.9035603,202.565,0.11400000005960464,0.19099999964237213,0.23600000143051147,3,9
imu,1776824834.9955564,1240221257000,-0.20038485527038574,-2.9975485801696777,-9.16402816772461,-0.25239917635917664,-0.6073818206787109,-0.5149192214012146,40.421934,-86.9035603,202.565,0.11400000005960464,0.19099999964237213,0.23600000143051147,3,9
imu,1776824835.0051785,1240231257000,-0.537807285785675,-2.426506519317627,-8.709272384643555,-0.5814980864524841,-0.5699224472045898,-0.5965281128883362,40.421934,-86.9035603,202.565,0.11400000005960464,0.19099999964237213,0.23600000143051147,3,9
imu,1776824835.0159318,1240241257000,-0.566912829875946,-0.44515278935432434,-9.670347213745117,-0.975199818611145,-0.5225812196731567,-0.4501692056655884,40.421934,-86.9035603,202.565,0.11400000005960464,0.19099999964237213,0.23600000143051147,3,9
imu,1776824835.025679,1240251257000,-0.32692354917526245,-2.668956756591797,-9.665822982788086,-0.28712689876556396,-0.4793655276298523,-0.16857150197029114,40.421934,-86.9035603,202.565,0.11400000005960464,0.19099999964237213,0.23600000143051147,3,9
imu,1776824835.0355046,1240261257000,0.028997885063290596,-3.7042641639709473,-10.272382736206055,-1.0124884843826294,-0.18437635898590088,-0.10817287862300873,40.421934,-86.9035603,202.565,0.11400000005960464,0.19099999964237213,0.23600000143051147,3,9
imu,1776824835.0453653,1240271257000,-0.15851527452468872,-3.1847739219665527,-9.966629028320312,-0.9236138463020325,-0.0699739158153534,-0.23833367228507996,40.421934,-86.9035603,202.565,0.11400000005960464,0.19099999964237213,0.23600000143051147,3,9
imu,1776824835.0552218,1240281257000,-0.09183268994092941,-2.4682822227478027,-9.653600692749023,-1.0385020971298218,0.06863351911306381,-0.19298946857452393,40.421934,-86.9035603,202.565,0.11400000005960464,0.19099999964237213,0.23600000143051147,3,9
imu,1776824835.0650082,1240291257000,-0.1591380387544632,-2.4395129680633545,-9.268386840820312,-1.016045093536377,0.03326871618628502,-0.12764130532741547,40.421934,-86.9035603,202.565,0.11400000005960464,0.19099999964237213,0.23600000143051147,3,9
imu,1776824835.0751114,1240301257000,-0.4187071919441223,-2.6542792320251465,-9.479522705078125,-0.9997195601463318,0.037712462246418,-0.07023590803146362,40.421934,-86.9035603,202.565,0.11400000005960464,0.19099999964237213,0.23600000143051147,3,9
imu,1776824835.0848558,1240311257000,-0.4405617117881775,-2.522157669067383,-9.493709564208984,-1.0730329751968384,0.014510506764054298,-0.10567310452461243,40.421934,-86.9035603,202.565,0.11400000005960464,0.19099999964237213,0.23600000143051147,3,9
imu,1776824835.094674,1240321257000,-0.2652679979801178,-2.2527732849121094,-9.485456466674805,-1.0459200143814087,0.03313077986240387,-0.0995248407125473,40.421934,-86.9035603,202.565,0.11400000005960464,0.19099999964237213,0.23600000143051147,3,9
imu,1776824835.1054938,1240331257000,-0.1800701916217804,-2.054858446121216,-9.320621490478516,-0.8676777482032776,-0.015649117529392242,-0.07469591498374939,40.421934,-86.9035603,202.565,0.11400000005960464,0.19099999964237213,0.23600000143051147,3,9
imu,1776824835.115216,1240341257000,-0.0800149142742157,-1.9880036115646362,-9.72812271118164,-0.723415732383728,-0.00784923043102026,0.010619092732667923,40.421934,-86.9035603,202.565,0.11400000005960464,0.19099999964237213,0.23600000143051147,3,9
imu,1776824835.1249204,1240351257000,-0.008874725550413132,-2.17568302154541,-9.977020263671875,-0.7303935885429382,0.03913523256778717,0.029554525390267372,40.421934,-86.9035603,202.565,0.11400000005960464,0.19099999964237213,0.23600000143051147,3,9
imu,1776824835.1347659,1240361257000,-0.11369076371192932,-2.0801942348480225,-9.919855117797852,-0.5886340141296387,0.09432020038366318,0.051928047090768814,40.421934,-86.9035603,202.565,0.11400000005960464,0.19099999964237213,0.23600000143051147,3,9
imu,1776824835.1444938,1240371257000,-0.0661168023943901,-2.124685287475586,-9.875728607177734,-0.46785736083984375,0.11973483115434647,0.0991552472114563,40.421934,-86.9035603,202.565,0.11400000005960464,0.19099999964237213,0.23600000143051147,3,9
imu,1776824835.1542864,1240381257000,-0.0054771085269749165,-2.228991985321045,-9.900617599487305,-0.455049067735672,0.13641661405563354,0.11618176847696304,40.421934,-86.9035603,202.565,0.11400000005960464,0.19099999964237213,0.23600000143051147,3,9
imu,1776824835.1642327,1240391257000,0.016483116894960403,-2.069056987762451,-9.757753372192383,-0.3452230989933014,0.1085103377699852,0.10351504385471344,40.421934,-86.9035603,202.565,0.11400000005960464,0.19099999964237213,0.23600000143051147,3,9
imu,1776824835.1740117,1240401257000,-0.15544356405735016,-2.2329864501953125,-9.929563522338867,-0.2177155464887619,0.10763277113437653,0.14391154050827026,40.421934,-86.9035603,202.565,0.11400000005960464,0.19099999964237213,0.23600000143051147,3,9
imu,1776824835.1839676,1240411257000,-0.1690666824579239,-2.4498093128204346,-10.101188659667969,-0.1857425421476364,0.14185330271720886,0.09756547212600708,40.421934,-86.9035603,202.565,0.11400000005960464,0.19099999964237213,0.23600000143051147,3,9
imu,1776824835.1949604,1240421257000,-0.1250372976064682,-2.5496907234191895,-10.136100769042969,-0.13882935047149658,0.18786872923374176,0.04384699836373329,40.421934,-86.9035603,202.565,0.11400000005960464,0.19099999964237213,0.23600000143051147,3,9
imu,1776824835.20491,1240431257000,-0.2518942654132843,-2.5965421199798584,-9.998912811279297,-0.1270741969347,0.2570018470287323,-0.002355588600039482,40.421934,-86.9035603,202.565,0.11400000005960464,0.19099999964237213,0.23600000143051147,3,9
imu,1776824835.2142298,1240441257000,-0.3785465657711029,-2.737719774246216,-9.66428279876709,-0.14043328166007996,0.2698388695716858,-0.0676320269703865,40.421934,-86.9035603,202.565,0.11400000005960464,0.19099999964237213,0.23600000143051147,3,9
imu,1776824835.2240343,1240451257000,-0.3551122546195984,-2.729219436645508,-9.567883491516113,-0.19861987233161926,0.18974699079990387,-0.1264261156320572,40.421934,-86.9035603,202.565,0.11400000005960464,0.19099999964237213,0.23600000143051147,3,9
imu,1776824835.2340634,1240461257000,-0.4326586127281189,-2.630044937133789,-9.855956077575684,-0.24783101677894592,0.1404237300157547,-0.2266046106815338,40.421934,-86.9035603,202.565,0.11400000005960464,0.19099999964237213,0.23600000143051147,3,9
imu,1776824835.2439365,1240471257000,-0.3763270974159241,-2.1663217544555664,-9.800450325012207,-0.2893195152282715,0.15461891889572144,-0.2629721760749817,40.421934,-86.9035603,202.565,0.11400000005960464,0.19099999964237213,0.23600000143051147,3,9
imu,1776824835.2537677,1240481257000,-0.3276199698448181,-2.0346546173095703,-9.789559364318848,-0.2527088522911072,0.14366966485977173,-0.2723674774169922,40.421934,-86.9035603,202.565,0.11400000005960464,0.19099999964237213,0.23600000143051147,3,9
imu,1776824835.263836,1240491257000,-0.2923066020011902,-1.9879628419876099,-9.575861930847168,-0.26112616062164307,0.1358214020729065,-0.2790292203426361,40.421934,-86.9035603,202.565,0.11400000005960464,0.19099999964237213,0.23600000143051147,3,9
imu,1776824835.2736852,1240501257000,-0.3004547953605652,-1.9767214059829712,-9.523674011230469,-0.25770702958106995,0.13499462604522705,-0.26937153935432434,40.421934,-86.9035603,202.565,0.11400000005960464,0.19099999964237213,0.23600000143051147,3,9
imu,1776824835.2859352,1240511257000,-0.4400092363357544,-2.056870222091675,-9.584464073181152,-0.2787119448184967,0.16023744642734528,-0.27213403582572937,40.4219352,-86.90356249999999,202.05,-0.07500000298023224,-0.13899999856948853,0.1289999932050705,3,9
imu,1776824835.2937376,1240521257000,-0.5180395245552063,-1.9904793500900269,-9.545780181884766,-0.2916073203086853,0.20435450971126556,-0.30520233511924744,40.4219352,-86.90356249999999,202.05,-0.07500000298023224,-0.13899999856948853,0.1289999932050705,3,9
imu,1776824835.3034286,1240531257000,-0.43948283791542053,-1.7584443092346191,-9.370452880859375,-0.3436388671398163,0.21668723225593567,-0.355490505695343,40.4219352,-86.90356249999999,202.05,-0.07500000298023224,-0.13899999856948853,0.1289999932050705,3,9
imu,1776824835.3133004,1240541257000,-0.27498891949653625,-1.0363562107086182,-9.445098876953125,-0.3663784861564636,0.18052172660827637,-0.39247292280197144,40.4219352,-86.90356249999999,202.05,-0.07500000298023224,-0.13899999856948853,0.1289999932050705,3,9
imu,1776824835.3231266,1240551257000,0.024313177913427353,-0.44284743070602417,-9.876476287841797,-0.32946011424064636,0.16698937118053436,-0.3572008013725281,40.4219352,-86.90356249999999,202.05,-0.07500000298023224,-0.13899999856948853,0.1289999932050705,3,9
imu,1776824835.332948,1240561257000,0.033217549324035645,-0.2688125669956207,-9.933938026428223,-0.27655813097953796,0.18345938622951508,-0.3116316795349121,40.4219352,-86.90356249999999,202.05,-0.07500000298023224,-0.13899999856948853,0.1289999932050705,3,9
imu,1776824835.342758,1240571257000,0.01684414967894554,-0.14877213537693024,-9.903225898742676,-0.28428933024406433,0.18806393444538116,-0.3110843002796173,40.4219352,-86.90356249999999,202.05,-0.07500000298023224,-0.13899999856948853,0.1289999932050705,3,9
imu,1776824835.3525739,1240581257000,-0.23254522681236267,-0.11443153768777847,-9.342754364013672,-0.30787768959999084,0.21728549897670746,-0.2570345103740692,40.4219352,-86.90356249999999,202.05,-0.07500000298023224,-0.13899999856948853,0.1289999932050705,3,9
imu,1776824835.3624163,1240591257000,-0.2582986652851105,-0.1318805068731308,-9.134499549865723,-0.3614364564418793,0.1493918001651764,-0.23251882195472717,40.4219352,-86.90356249999999,202.05,-0.07500000298023224,-0.13899999856948853,0.1289999932050705,3,9
imu,1776824835.3731952,1240601257000,-0.3971530795097351,-0.016206588596105576,-8.992324829101562,-0.43370115756988525,0.14144986867904663,-0.16119100153446198,40.4219352,-86.90356249999999,202.05,-0.07500000298023224,-0.13899999856948853,0.1289999932050705,3,9
imu,1776824835.3829339,1240611257000,-0.286895751953125,0.1567077338695526,-9.213994979858398,-0.4965597689151764,0.13430707156658173,-0.15009063482284546,40.4219352,-86.90356249999999,202.05,-0.07500000298023224,-0.13899999856948853,0.1289999932050705,3,9
imu,1776824835.393048,1240621257000,-0.1716323345899582,0.6680903434753418,-9.258121490478516,-0.49169921875,0.037468165159225464,-0.09529516100883484,40.4219352,-86.90356249999999,202.05,-0.07500000298023224,-0.13899999856948853,0.1289999932050705,3,9
imu,1776824835.403691,1240631257000,0.053224287927150726,1.0096793174743652,-9.558523178100586,-0.48042014241218567,-0.0013841856271028519,0.03461205214262009,40.4219352,-86.90356249999999,202.05,-0.07500000298023224,-0.13899999856948853,0.1289999932050705,3,9
imu,1776824835.413395,1240641257000,-0.1059483215212822,1.0571445226669312,-9.270751953125,-0.2324744313955307,-0.03543918579816818,0.13778412342071533,40.4219352,-86.90356249999999,202.05,-0.07500000298023224,-0.13899999856948853,0.1289999932050705,3,9
imu,1776824835.422278,1240651257000,-0.25720590353012085,1.123932957649231,-9.139570236206055,-0.1641419380903244,-0.19116564095020294,0.33496129512786865,40.4219352,-86.90356249999999,202.05,-0.07500000298023224,-0.13899999856948853,0.1289999932050705,3,9
imu,1776824835.433257,1240661257000,-0.007733763195574284,0.6365835070610046,-9.40102767944336,-0.1985122561454773,-0.31614047288894653,0.4994679391384125,40.4219352,-86.90356249999999,202.05,-0.07500000298023224,-0.13899999856948853,0.1289999932050705,3,9
imu,1776824835.4421058,1240671256000,-0.07440436631441116,0.12395884096622467,-10.108835220336914,-0.06796467304229736,-0.25153297185897827,0.5197526812553406,40.4219352,-86.90356249999999,202.05,-0.07500000298023224,-0.13899999856948853,0.1289999932050705,3,9
imu,1776824835.451822,1240681257000,-0.14778338372707367,-0.027820803225040436,-10.089402198791504,-0.112637959420681,-0.205564945936203,0.5285828113555908,40.4219352,-86.90356249999999,202.05,-0.07500000298023224,-0.13899999856948853,0.1289999932050705,3,9
imu,1776824835.4615207,1240691257000,-0.10154148936271667,-0.4119180142879486,-9.93679428100586,-0.15698738396167755,-0.16528970003128052,0.5529724955558777,40.4219352,-86.90356249999999,202.05,-0.07500000298023224,-0.13899999856948853,0.1289999932050705,3,9
imu,1776824835.4713607,1240701257000,-0.38747715950012207,-0.4124802052974701,-9.487062454223633,-0.28146979212760925,-0.23224346339702606,0.5397810935974121,40.4219352,-86.90356249999999,202.05,-0.07500000298023224,-0.13899999856948853,0.1289999932050705,3,9
imu,1776824835.4822464,1240711257000,-0.3016572892665863,-0.6073997616767883,-10.224170684814453,-0.09077537059783936,-0.2635858952999115,0.5351055860519409,40.4219352,-86.90356249999999,202.05,-0.07500000298023224,-0.13899999856948853,0.1289999932050705,3,9
imu,1776824835.4921217,1240721257000,-0.23908968269824982,-1.0283297300338745,-9.825922966003418,-0.15089938044548035,-0.20676371455192566,0.479367733001709,40.4219352,-86.90356249999999,202.05,-0.07500000298023224,-0.13899999856948853,0.1289999932050705,3,9
imu,1776824835.5019646,1240731257000,-0.3903689682483673,-1.0602660179138184,-10.186803817749023,-0.18273326754570007,-0.1471744328737259,0.4883056581020355,40.4219352,-86.90356249999999,202.05,-0.07500000298023224,-0.13899999856948853,0.1289999932050705,3,9
imu,1776824835.5127332,1240741257000,-0.6172460913658142,-1.4286609888076782,-10.101027488708496,-0.3154331147670746,-0.06780731678009033,0.5685282945632935,40.4219352,-86.90356249999999,202.05,-0.07500000298023224,-0.13899999856948853,0.1289999932050705,3,9
imu,1776824835.5221343,1240751257000,-0.45772719383239746,-1.5307968854904175,-9.87070369720459,-0.069225013256073,-0.07308445870876312,0.4405270218849182,40.4219352,-86.90356249999999,202.05,-0.07500000298023224,-0.13899999856948853,0.1289999932050705,3,9
imu,1776824835.5317693,1240761257000,-0.4413272738456726,-1.9085736274719238,-9.616742134094238,-0.16566520929336548,-0.08758535981178284,0.3697793185710907,40.4219352,-86.90356249999999,202.05,-0.07500000298023224,-0.13899999856948853,0.1289999932050705,3,9
imu,1776824835.5426297,1240771257000,-0.49254631996154785,-1.9900058507919312,-9.627628326416016,-0.15064801275730133,-0.06913279742002487,0.31078675389289856,40.4219352,-86.90356249999999,202.05,-0.07500000298023224,-0.13899999856948853,0.1289999932050705,3,9
imu,1776824835.5524862,1240781257000,-0.4784441590309143,-2.0152556896209717,-9.61567497253418,-0.1369086652994156,-0.07671347260475159,0.27874356508255005,40.4219352,-86.90356249999999,202.05,-0.07500000298023224,-0.13899999856948853,0.1289999932050705,3,9
imu,1776824835.5624833,1240791257000,-0.4888837933540344,-2.1389894485473633,-9.756205558776855,-0.09089133888483047,-0.06432751566171646,0.250902384519577,40.4219352,-86.90356249999999,202.05,-0.07500000298023224,-0.13899999856948853,0.1289999932050705,3,9
imu,1776824835.5722337,1240801257000,-0.5456858277320862,-2.4337661266326904,-9.858231544494629,-0.02006099931895733,-0.09340275079011917,0.11610996723175049,40.4219352,-86.90356249999999,202.05,-0.07500000298023224,-0.13899999856948853,0.1289999932050705,3,9
imu,1776824835.581876,1240811257000,-0.4985538721084595,-2.322113513946533,-9.817337036132812,-0.09618514031171799,-0.09428050369024277,0.07803942263126373,40.4219352,-86.90356249999999,202.05,-0.07500000298023224,-0.13899999856948853,0.1289999932050705,3,9
imu,1776824835.5918276,1240821257000,-0.5555062294006348,-2.2152340412139893,-9.814332008361816,-0.152840256690979,-0.09300151467323303,-0.00070933997631073,40.4219352,-86.90356249999999,202.05,-0.07500000298023224,-0.13899999856948853,0.1289999932050705,3,9
imu,1776824835.6017277,1240831257000,-0.45376649498939514,-1.792600393295288,-9.998183250427246,-0.15288366377353668,-0.07853642106056213,-0.026183882728219032,40.4219352,-86.90356249999999,202.05,-0.07500000298023224,-0.13899999856948853,0.1289999932050705,3,9
imu,1776824835.6114984,1240841257000,-0.500950813293457,-1.5795860290527344,-10.077522277832031,-0.11791756749153137,-0.10668674856424332,-0.06751687824726105,40.4219352,-86.90356249999999,202.05,-0.07500000298023224,-0.13899999856948853,0.1289999932050705,3,9
imu,1776824835.6212184,1240851257000,-0.35257309675216675,-1.639208436012268,-10.118668556213379,-0.07363050431013107,-0.04187731444835663,-0.06237523630261421,40.4219352,-86.90356249999999,202.05,-0.07500000298023224,-0.13899999856948853,0.1289999932050705,3,9
imu,1776824835.6310234,1240861257000,-0.544365406036377,-1.3868294954299927,-9.926259994506836,-0.10484474897384644,-0.056122902780771255,-0.08464108407497406,40.4219352,-86.90356249999999,202.05,-0.07500000298023224,-0.13899999856948853,0.1289999932050705,3,9
imu,1776824835.6420143,1240871257000,-0.4107578992843628,-1.5120904445648193,-9.975767135620117,-0.06880751252174377,-0.03401598706841469,-0.031789492815732956,40.4219352,-86.90356249999999,202.05,-0.07500000298023224,-0.13899999856948853,0.1289999932050705,3,9
imu,1776824835.6516235,1240881257000,-0.384634792804718,-1.6284105777740479,-10.151994705200195,-0.07853324711322784,0.009211163967847824,-0.11323758214712143,40.4219352,-86.90356249999999,202.05,-0.07500000298023224,-0.13899999856948853,0.1289999932050705,3,9
imu,1776824835.6614897,1240891257000,-0.4383865296840668,-1.1739840507507324,-10.096522331237793,-0.12284765392541885,0.06215134263038635,-0.10133929550647736,40.4219352,-86.90356249999999,202.05,-0.07500000298023224,-0.13899999856948853,0.1289999932050705,3,9
imu,1776824835.671241,1240901257000,-0.34267163276672363,-1.260104775428772,-9.657916069030762,-0.11912845820188522,0.022413263097405434,-0.11588063091039658,40.4219352,-86.90356249999999,202.05,-0.07500000298023224,-0.13899999856948853,0.1289999932050705,3,9
imu,1776824835.6809607,1240911257000,-0.3106035590171814,-1.112175703048706,-9.829968452453613,-0.1260732263326645,0.03608246520161629,-0.09615323692560196,40.4219352,-86.90356249999999,202.05,-0.07500000298023224,-0.13899999856948853,0.1289999932050705,3,9
imu,1776824835.690913,1240921257000,-0.4556690454483032,-0.9359234571456909,-9.930442810058594,-0.08065784722566605,0.0740814059972763,-0.03877008706331253,40.4219352,-86.90356249999999,202.05,-0.07500000298023224,-0.13899999856948853,0.1289999932050705,3,9
imu,1776824835.7007852,1240931257000,-0.25795748829841614,-0.8804548382759094,-9.450238227844238,-0.06872984766960144,0.12163645774126053,-0.04315003752708435,40.4219352,-86.90356249999999,202.05,-0.07500000298023224,-0.13899999856948853,0.1289999932050705,3,9
imu,1776824835.7106886,1240941257000,-0.19958001375198364,-1.0650147199630737,-9.662782669067383,-0.08498045057058334,0.06531253457069397,-0.058507636189460754,40.4219352,-86.90356249999999,202.05,-0.07500000298023224,-0.13899999856948853,0.1289999932050705,3,9
imu,1776824835.720512,1240951257000,-0.27333587408065796,-0.9002089500427246,-9.701478958129883,-0.0882050096988678,0.04037496820092201,-0.0458163321018219,40.4219352,-86.90356249999999,202.05,-0.07500000298023224,-0.13899999856948853,0.1289999932050705,3,9
imu,1776824835.7303836,1240961257000,-0.21750670671463013,-0.9033581018447876,-9.716409683227539,-0.05080157145857811,0.048528481274843216,-0.02358330972492695,40.4219352,-86.90356249999999,202.05,-0.07500000298023224,-0.13899999856948853,0.1289999932050705,3,9
imu,1776824835.740379,1240971257000,-0.34566229581832886,-1.0045013427734375,-9.708693504333496,-0.0372583270072937,0.06748223304748535,-0.025166315957903862,40.4219352,-86.90356249999999,202.05,-0.07500000298023224,-0.13899999856948853,0.1289999932050705,3,9
imu,1776824835.750046,1240981257000,-0.2693219780921936,-0.9640896916389465,-9.594894409179688,-0.018304288387298584,0.03939177840948105,-0.04735974967479706,40.4219352,-86.90356249999999,202.05,-0.07500000298023224,-0.13899999856948853,0.1289999932050705,3,9
imu,1776824835.7598362,1240991257000,-0.2295370101928711,-0.7451583743095398,-9.589046478271484,0.013048214837908745,0.02810065634548664,-0.05752570927143097,40.4219352,-86.90356249999999,202.05,-0.07500000298023224,-0.13899999856948853,0.1289999932050705,3,9
imu,1776824835.7696772,1241001257000,-0.29161688685417175,-0.7098896503448486,-9.63144302368164,0.05059510096907616,0.03268309310078621,-0.015621162950992584,40.4219352,-86.90356249999999,202.05,-0.07500000298023224,-0.13899999856948853,0.1289999932050705,3,9
imu,1776824835.7805402,1241011257000,-0.2710764408111572,-0.8727225065231323,-9.651719093322754,0.058127015829086304,0.04668835923075676,-0.006560776382684708,40.4219364,-86.9035628,201.82,-0.02500000037252903,-0.10599999874830246,0.19499999284744263,3,9
imu,1776824835.7902153,1241021257000,-0.31922152638435364,-0.9299998879432678,-9.59047794342041,0.035976845771074295,0.046765998005867004,-0.021583158522844315,40.4219364,-86.9035628,201.82,-0.02500000037252903,-0.10599999874830246,0.19499999284744263,3,9
imu,1776824835.8000398,1241031257000,-0.28064844012260437,-0.93851238489151,-9.603311538696289,-0.00482427841052413,0.028490817174315453,-0.03032561019062996,40.4219364,-86.9035628,201.82,-0.02500000037252903,-0.10599999874830246,0.19499999284744263,3,9
imu,1776824835.80984,1241041257000,-0.2749209403991699,-0.8751447200775146,-9.66464614868164,-0.051248058676719666,0.034736599773168564,-0.033050134778022766,40.4219364,-86.9035628,201.82,-0.02500000037252903,-0.10599999874830246,0.19499999284744263,3,9
imu,1776824835.8200238,1241051257000,-0.27457481622695923,-0.8227939009666443,-9.596309661865234,-0.061445705592632294,0.0040541281923651695,-0.04032203555107117,40.4219364,-86.9035628,201.82,-0.02500000037252903,-0.10599999874830246,0.19499999284744263,3,9
imu,1776824835.8299298,1241061257000,-0.2022383213043213,-0.6576969027519226,-9.708388328552246,-0.05559461563825607,-0.024388425052165985,-0.047404028475284576,40.4219364,-86.9035628,201.82,-0.02500000037252903,-0.10599999874830246,0.19499999284744263,3,9
imu,1776824835.8397493,1241071257000,-0.24170556664466858,-0.6160671710968018,-9.860200881958008,-0.03725636005401611,-0.041441909968853,-0.02279520221054554,40.4219364,-86.9035628,201.82,-0.02500000037252903,-0.10599999874830246,0.19499999284744263,3,9
imu,1776824835.8493457,1241081257000,-0.37627333402633667,-0.782687783241272,-9.848966598510742,-0.0037033448461443186,-0.02060748264193535,-0.008491532877087593,40.4219364,-86.9035628,201.82,-0.02500000037252903,-0.10599999874830246,0.19499999284744263,3,9
imu,1776824835.859268,1241091257000,-0.3380100727081299,-0.9295968413352966,-9.783679962158203,-0.018263325095176697,-0.019476866349577904,-0.02095893770456314,40.4219364,-86.9035628,201.82,-0.02500000037252903,-0.10599999874830246,0.19499999284744263,3,9
imu,1776824835.8692288,1241101257000,-0.25754642486572266,-0.911865234375,-9.882904052734375,-0.04408727213740349,-0.01102979201823473,-0.031231438741087914,40.4219364,-86.9035628,201.82,-0.02500000037252903,-0.10599999874830246,0.19499999284744263,3,9
imu,1776824835.878991,1241111257000,-0.23865778744220734,-0.8006290197372437,-9.88981819152832,-0.05858501046895981,0.009433258324861526,-0.05291809141635895,40.4219364,-86.9035628,201.82,-0.02500000037252903,-0.10599999874830246,0.19499999284744263,3,9
imu,1776824835.8888776,1241121257000,-0.2266513705253601,-0.7117509841918945,-9.72661018371582,-0.0673101618885994,0.007355629466474056,-0.05532658472657204,40.4219364,-86.9035628,201.82,-0.02500000037252903,-0.10599999874830246,0.19499999284744263,3,9
imu,1776824835.898672,1241131257000,-0.20171919465065002,-0.6284232139587402,-9.71391487121582,-0.09258982539176941,-0.007868999615311623,-0.059938304126262665,40.4219364,-86.9035628,201.82,-0.02500000037252903,-0.10599999874830246,0.19499999284744263,3,9
imu,1776824835.9085515,1241141257000,-0.09357000887393951,-0.6314048171043396,-9.827144622802734,-0.10927005112171173,-0.01220754161477089,-0.08020409941673279,40.4219364,-86.9035628,201.82,-0.02500000037252903,-0.10599999874830246,0.19499999284744263,3,9
imu,1776824835.9183903,1241151257000,-0.10307908058166504,-0.5270698070526123,-9.953276634216309,-0.12881715595722198,0.0009949642699211836,-0.09053006768226624,40.4219364,-86.9035628,201.82,-0.02500000037252903,-0.10599999874830246,0.19499999284744263,3,9
imu,1776824835.929176,1241161257000,-0.08804578334093094,-0.5637849569320679,-9.974875450134277,-0.11762148141860962,0.01768334209918976,-0.08469648659229279,40.4219364,-86.9035628,201.82,-0.02500000037252903,-0.10599999874830246,0.19499999284744263,3,9
imu,1776824835.938981,1241171257000,-0.07735911756753922,-0.34437867999076843,-9.854718208312988,-0.10272254049777985,0.014531363733112812,-0.07051604986190796,40.4219364,-86.9035628,201.82,-0.02500000037252903,-0.10599999874830246,0.19499999284744263,3,9
imu,1776824835.9487865,1241181257000,-0.05409853160381317,-0.3296542465686798,-9.870388984680176,-0.09038076549768448,0.0033292467705905437,-0.050242625176906586,40.4219364,-86.9035628,201.82,-0.02500000037252903,-0.10599999874830246,0.19499999284744263,3,9
imu,1776824835.9586847,1241191257000,-0.15667378902435303,-0.37586715817451477,-9.904013633728027,-0.07653816044330597,2.3774337023496628e-05,-0.04078923165798187,40.4219364,-86.9035628,201.82,-0.02500000037252903,-0.10599999874830246,0.19499999284744263,3,9
imu,1776824835.96854,1241201257000,-0.19307462871074677,-0.48463132977485657,-9.930310249328613,-0.03446367383003235,-0.004512539133429527,-0.0304512158036232,40.4219364,-86.9035628,201.82,-0.02500000037252903,-0.10599999874830246,0.19499999284744263,3,9
imu,1776824835.978291,1241211257000,-0.22598859667778015,-0.4866352081298828,-9.9575834274292,0.011020790785551071,-0.0003812350332736969,-0.030114900320768356,40.4219364,-86.9035628,201.82,-0.02500000037252903,-0.10599999874830246,0.19499999284744263,3,9
imu,1776824835.9881244,1241221257000,-0.2262077033519745,-0.48600929975509644,-9.871607780456543,0.0056893229484558105,0.009032735601067543,-0.02277985028922558,40.4219364,-86.9035628,201.82,-0.02500000037252903,-0.10599999874830246,0.19499999284744263,3,9
imu,1776824835.9979162,1241231257000,-0.24107450246810913,-0.5428978800773621,-9.858269691467285,-0.03318014368414879,0.019887063652276993,-0.023462653160095215,40.4219364,-86.9035628,201.82,-0.02500000037252903,-0.10599999874830246,0.19499999284744263,3,9
imu,1776824836.0077775,1241241257000,-0.2960493862628937,-0.5660809874534607,-9.923871040344238,-0.024342862889170647,0.025909647345542908,-0.028174033388495445,40.4219364,-86.9035628,201.82,-0.02500000037252903,-0.10599999874830246,0.19499999284744263,3,9
imu,1776824836.0174675,1241251257000,-0.23327216506004333,-0.546501100063324,-10.000846862792969,0.011741370894014835,0.027682887390255928,-0.029338249936699867,40.4219364,-86.9035628,201.82,-0.02500000037252903,-0.10599999874830246,0.19499999284744263,3,9
imu,1776824836.027227,1241261257000,-0.2397688329219818,-0.4840698838233948,-9.95344066619873,0.015547098591923714,0.049519654363393784,-0.02697867527604103,40.4219364,-86.9035628,201.82,-0.02500000037252903,-0.10599999874830246,0.19499999284744263,3,9
imu,1776824836.0380821,1241271257000,-0.3379373848438263,-0.2914789915084839,-9.737774848937988,0.02010614424943924,0.04709790274500847,0.002415332943201065,40.4219364,-86.9035628,201.82,-0.02500000037252903,-0.10599999874830246,0.19499999284744263,3,9
imu,1776824836.0480015,1241281257000,-0.28658565878868103,-0.4026716351509094,-9.793739318847656,0.030385980382561684,0.043470606207847595,0.037767231464385986,40.4219364,-86.9035628,201.82,-0.02500000037252903,-0.10599999874830246,0.19499999284744263,3,9
imu,1776824836.0576687,1241291257000,-0.165568545460701,-0.48255839943885803,-9.859389305114746,0.02203558385372162,0.05859331786632538,0.04066930338740349,40.4219364,-86.9035628,201.82,-0.02500000037252903,-0.10599999874830246,0.19499999284744263,3,9
imu,1776824836.0676253,1241301257000,-0.3309198319911957,-0.5309291481971741,-9.562573432922363,0.0066909343004226685,0.05289854481816292,0.058482058346271515,40.4219364,-86.9035628,201.82,-0.02500000037252903,-0.10599999874830246,0.19499999284744263,3,9
imu,1776824836.0774188,1241311257000,-0.3683355748653412,-0.7110098600387573,-9.524567604064941,0.007645188365131617,0.01251731812953949,0.06276798993349075,40.4219364,-86.9035628,201.82,-0.02500000037252903,-0.10599999874830246,0.19499999284744263,3,9
imu,1776824836.0872877,1241321257000,-0.24083064496517181,-0.7600301504135132,-9.629592895507812,0.00814427062869072,-0.021886900067329407,0.03902582824230194,40.4219364,-86.9035628,201.82,-0.02500000037252903,-0.10599999874830246,0.19499999284744263,3,9
imu,1776824836.096992,1241331257000,-0.30522459745407104,-0.7453762888908386,-9.635232925415039,0.02242939919233322,-0.051131173968315125,0.03279516100883484,40.4219364,-86.9035628,201.82,-0.02500000037252903,-0.10599999874830246,0.19499999284744263,3,9
imu,1776824836.1068356,1241341257000,-0.3025830090045929,-0.9104747772216797,-9.787757873535156,0.04360448569059372,-0.048650000244379044,0.020001448690891266,40.4219364,-86.9035628,201.82,-0.02500000037252903,-0.10599999874830246,0.19499999284744263,3,9
imu,1776824836.1176028,1241351257000,-0.3427484333515167,-1.047486662864685,-9.878740310668945,0.08273186534643173,-0.03491123765707016,-0.0011240560561418533,40.4219364,-86.9035628,201.82,-0.02500000037252903,-0.10599999874830246,0.19499999284744263,3,9
imu,1776824836.1274111,1241361257000,-0.30162540078163147,-1.0249876976013184,-9.785778999328613,0.007452379446476698,-0.007648084312677383,-0.038223281502723694,40.4219364,-86.9035628,201.82,-0.02500000037252903,-0.10599999874830246,0.19499999284744263,3,9
imu,1776824836.1366954,1241371257000,-0.2812933921813965,-0.6733405590057373,-9.584403991699219,-0.04132242873311043,0.002919575432315469,-0.041023705154657364,40.4219364,-86.9035628,201.82,-0.02500000037252903,-0.10599999874830246,0.19499999284744263,3,9
imu,1776824836.1462939,1241381257000,-0.09606188535690308,-0.5456258654594421,-9.679361343383789,-0.050254642963409424,-0.03416890650987625,-0.0349309965968132,40.4219364,-86.9035628,201.82,-0.02500000037252903,-0.10599999874830246,0.19499999284744263,3,9
imu,1776824836.1562226,1241391257000,0.007189814932644367,-0.3648916184902191,-10.023174285888672,0.012063631787896156,-0.03516558185219765,-0.015326464548707008,40.4219364,-86.9035628,201.82,-0.02500000037252903,-0.10599999874830246,0.19499999284744263,3,9
imu,1776824836.1670742,1241401257000,-0.04815986379981041,-0.4804460108280182,-9.99363899230957,0.07914111763238907,-0.02288813889026642,0.012835301458835602,40.4219364,-86.9035628,201.82,-0.02500000037252903,-0.10599999874830246,0.19499999284744263,3,9
imu,1776824836.1767585,1241411257000,-0.0789334625005722,-0.636896014213562,-9.971780776977539,0.12836265563964844,-0.011149158701300621,0.03283519670367241,40.4219364,-86.9035628,201.82,-0.02500000037252903,-0.10599999874830246,0.19499999284744263,3,9
imu,1776824836.186634,1241421257000,-0.05839691683650017,-0.9003399014472961,-9.573986053466797,0.06663466989994049,-0.0026202304288744926,0.03395441174507141,40.4219364,-86.9035628,201.82,-0.02500000037252903,-0.10599999874830246,0.19499999284744263,3,9
imu,1776824836.1963382,1241431257000,-0.2591412663459778,-1.1601791381835938,-10.010286331176758,-0.032996758818626404,0.0016917444299906492,0.005895056761801243,40.4219364,-86.9035628,201.82,-0.02500000037252903,-0.10599999874830246,0.19499999284744263,3,9
imu,1776824836.206106,1241441257000,-0.1396600306034088,-1.2646652460098267,-10.128580093383789,-0.035193465650081635,0.03608110919594765,-0.04399636387825012,40.4219364,-86.9035628,201.82,-0.02500000037252903,-0.10599999874830246,0.19499999284744263,3,9
imu,1776824836.2158492,1241451257000,-0.26369959115982056,-1.137736439704895,-10.129749298095703,-0.013193291611969471,0.07545788586139679,-0.055652182549238205,40.4219364,-86.9035628,201.82,-0.02500000037252903,-0.10599999874830246,0.19499999284744263,3,9
imu,1776824836.225743,1241461257000,-0.27668496966362,-1.2307435274124146,-9.864583969116211,0.0021908744238317013,0.10106435418128967,-0.08612329512834549,40.4219364,-86.9035628,201.82,-0.02500000037252903,-0.10599999874830246,0.19499999284744263,3,9
imu,1776824836.2354717,1241471257000,-0.13699790835380554,-1.1722311973571777,-9.743391990661621,0.026145536452531815,0.10777939110994339,-0.10681772232055664,40.4219364,-86.9035628,201.82,-0.02500000037252903,-0.10599999874830246,0.19499999284744263,3,9
imu,1776824836.2453241,1241481257000,-0.3053945302963257,-1.0684195756912231,-9.457857131958008,0.019749263301491737,0.09259840101003647,-0.12253252416849136,40.4219364,-86.9035628,201.82,-0.02500000037252903,-0.10599999874830246,0.19499999284744263,3,9
imu,1776824836.2552166,1241491257000,-0.22717979550361633,-1.0133841037750244,-9.723569869995117,-0.001601214986294508,0.08920392394065857,-0.14131036400794983,40.4219364,-86.9035628,201.82,-0.02500000037252903,-0.10599999874830246,0.19499999284744263,3,9
imu,1776824836.2659428,1241501257000,-0.16398009657859802,-0.7153707146644592,-9.709508895874023,-0.00023256288841366768,0.09455162286758423,-0.14768704771995544,40.4219364,-86.9035628,201.82,-0.02500000037252903,-0.10599999874830246,0.19499999284744263,3,9
imu,1776824836.277957,1241511257000,-0.13081137835979462,-0.5835340619087219,-9.646745681762695,-0.030924255028367043,0.09832622855901718,-0.14096906781196594,40.421937899999996,-86.9035632,201.447,0.2070000022649765,-0.12800000607967377,0.21400000154972076,3,9
imu,1776824836.285617,1241521257000,-0.1916898787021637,-0.4141750633716583,-9.581047058105469,-0.04859444499015808,0.0919157937169075,-0.1241760328412056,40.421937899999996,-86.9035632,201.447,0.2070000022649765,-0.12800000607967377,0.21400000154972076,3,9
imu,1776824836.2952948,1241531257000,-0.15887558460235596,-0.24565698206424713,-9.637951850891113,-0.05043167993426323,0.07657858729362488,-0.10646600276231766,40.421937899999996,-86.9035632,201.447,0.2070000022649765,-0.12800000607967377,0.21400000154972076,3,9
imu,1776824836.3051498,1241541257000,-0.16170093417167664,-0.15509845316410065,-9.602839469909668,-0.04622386395931244,0.060937318950891495,-0.0737316757440567,40.421937899999996,-86.9035632,201.447,0.2070000022649765,-0.12800000607967377,0.21400000154972076,3,9
imu,1776824836.315045,1241551257000,-0.16546237468719482,-0.09679191559553146,-9.615629196166992,-0.021887825801968575,0.040912240743637085,-0.04250270128250122,40.421937899999996,-86.9035632,201.447,0.2070000022649765,-0.12800000607967377,0.21400000154972076,3,9
imu,1776824836.324761,1241561256000,-0.23151305317878723,-0.12799249589443207,-9.640644073486328,-0.005184243433177471,0.02017667330801487,-0.011011291295289993,40.421937899999996,-86.9035632,201.447,0.2070000022649765,-0.12800000607967377,0.21400000154972076,3,9
imu,1776824836.3346634,1241571257000,-0.2927324175834656,-0.16401062905788422,-9.693073272705078,0.016901429742574692,0.009332691319286823,0.01917979121208191,40.421937899999996,-86.9035632,201.447,0.2070000022649765,-0.12800000607967377,0.21400000154972076,3,9
imu,1776824836.3444133,1241581257000,-0.3832918405532837,-0.3197764754295349,-9.621670722961426,0.024545099586248398,-0.007674867287278175,0.04461803287267685,40.421937899999996,-86.9035632,201.447,0.2070000022649765,-0.12800000607967377,0.21400000154972076,3,9
imu,1776824836.354295,1241591257000,-0.38036075234413147,-0.35495492815971375,-9.63790225982666,0.02788659743964672,-0.016611043363809586,0.05287477374076843,40.421937899999996,-86.9035632,201.447,0.2070000022649765,-0.12800000607967377,0.21400000154972076,3,9
imu,1776824836.3640785,1241601257000,-0.3527616858482361,-0.4258553385734558,-9.635934829711914,0.04908503592014313,-0.024079980328679085,0.06555266678333282,40.421937899999996,-86.9035632,201.447,0.2070000022649765,-0.12800000607967377,0.21400000154972076,3,9
imu,1776824836.3750932,1241611257000,-0.3667139708995819,-0.511398196220398,-9.594457626342773,0.050198737531900406,-0.026267990469932556,0.07709364593029022,40.421937899999996,-86.9035632,201.447,0.2070000022649765,-0.12800000607967377,0.21400000154972076,3,9
imu,1776824836.3838577,1241621257000,-0.45188677310943604,-0.6116921305656433,-9.489296913146973,0.02987714856863022,-0.03800506144762039,0.07657848298549652,40.421937899999996,-86.9035632,201.447,0.2070000022649765,-0.12800000607967377,0.21400000154972076,3,9
imu,1776824836.3939257,1241631257000,-0.46371990442276,-0.7451657056808472,-9.491151809692383,0.006866584066301584,-0.0566742978990078,0.05908608436584473,40.421937899999996,-86.9035632,201.447,0.2070000022649765,-0.12800000607967377,0.21400000154972076,3,9
imu,1776824836.4047499,1241641257000,-0.41684144735336304,-0.6664571762084961,-9.55044937133789,-0.02744068205356598,-0.07496162503957748,0.040726516395807266,40.421937899999996,-86.9035632,201.447,0.2070000022649765,-0.12800000607967377,0.21400000154972076,3,9
imu,1776824836.4144557,1241651257000,-0.4260280728340149,-0.4939773380756378,-9.597393989562988,-0.06283203512430191,-0.06951788067817688,0.031117524951696396,40.421937899999996,-86.9035632,201.447,0.2070000022649765,-0.12800000607967377,0.21400000154972076,3,9
imu,1776824836.4237378,1241661257000,-0.3593637943267822,-0.40346893668174744,-9.628294944763184,-0.09368080645799637,-0.07619448006153107,0.028635498136281967,40.421937899999996,-86.9035632,201.447,0.2070000022649765,-0.12800000607967377,0.21400000154972076,3,9
imu,1776824836.433626,1241671257000,-0.31151530146598816,-0.3670180141925812,-9.697325706481934,-0.10954546928405762,-0.051539964973926544,0.025986580178141594,40.421937899999996,-86.9035632,201.447,0.2070000022649765,-0.12800000607967377,0.21400000154972076,3,9
imu,1776824836.4440498,1241681257000,-0.27972254157066345,-0.20357966423034668,-9.490120887756348,-0.10780321806669235,-0.09878169000148773,0.015387648716568947,40.421937899999996,-86.9035632,201.447,0.2070000022649765,-0.12800000607967377,0.21400000154972076,3,9
imu,1776824836.4537487,1241691257000,-0.1653510183095932,-0.2016187608242035,-9.543925285339355,-0.04964017868041992,-0.14666493237018585,0.059881940484046936,40.421937899999996,-86.9035632,201.447,0.2070000022649765,-0.12800000607967377,0.21400000154972076,3,9
imu,1776824836.4635284,1241701257000,-0.25197550654411316,-0.3475991189479828,-9.692517280578613,-0.0051932861097157,-0.12849707901477814,0.09564996510744095,40.421937899999996,-86.9035632,201.447,0.2070000022649765,-0.12800000607967377,0.21400000154972076,3,9
imu,1776824836.473493,1241711257000,-0.3330431282520294,-0.610950231552124,-9.679195404052734,0.024486852809786797,-0.1329077035188675,0.1281004250049591,40.421937899999996,-86.9035632,201.447,0.2070000022649765,-0.12800000607967377,0.21400000154972076,3,9
imu,1776824836.4833043,1241721257000,-0.3109196424484253,-1.0761092901229858,-9.940533638000488,0.05289934203028679,-0.07256053388118744,0.08635085076093674,40.421937899999996,-86.9035632,201.447,0.2070000022649765,-0.12800000607967377,0.21400000154972076,3,9
imu,1776824836.493018,1241731257000,-0.28795650601387024,-0.9154673218727112,-9.643261909484863,0.03253393992781639,-0.05486506596207619,0.038723234087228775,40.421937899999996,-86.9035632,201.447,0.2070000022649765,-0.12800000607967377,0.21400000154972076,3,9
imu,1776824836.5028188,1241741257000,-0.28755834698677063,-0.76390141248703,-9.72597599029541,-0.014764305204153061,-0.07449138909578323,0.08052196353673935,40.421937899999996,-86.9035632,201.447,0.2070000022649765,-0.12800000607967377,0.21400000154972076,3,9
imu,1776824836.5127685,1241751257000,-0.21600325405597687,-0.892488956451416,-9.856607437133789,-0.050245530903339386,-0.12359560281038284,0.015476841479539871,40.421937899999996,-86.9035632,201.447,0.2070000022649765,-0.12800000607967377,0.21400000154972076,3,9
imu,1776824836.5235076,1241761257000,-0.05806907266378403,-0.9584705233573914,-9.988873481750488,-0.016996778547763824,-0.1129656732082367,-0.011401651427149773,40.421937899999996,-86.9035632,201.447,0.2070000022649765,-0.12800000607967377,0.21400000154972076,3,9
imu,1776824836.5333853,1241771257000,-0.19117750227451324,-0.47493186593055725,-10.172451972961426,-0.021964579820632935,-0.1253962367773056,0.03240783140063286,40.421937899999996,-86.9035632,201.447,0.2070000022649765,-0.12800000607967377,0.21400000154972076,3,9
imu,1776824836.5431702,1241781257000,-0.09678836911916733,-0.8319963812828064,-10.224188804626465,0.01767723448574543,-0.09595733135938644,0.04228818416595459,40.421937899999996,-86.9035632,201.447,0.2070000022649765,-0.12800000607967377,0.21400000154972076,3,9
imu,1776824836.5531797,1241791257000,-0.23859816789627075,-0.819023609161377,-10.178181648254395,0.02112261950969696,-0.0694156289100647,0.028297599405050278,40.421937899999996,-86.9035632,201.447,0.2070000022649765,-0.12800000607967377,0.21400000154972076,3,9
imu,1776824836.5630069,1241801257000,-0.19000943005084991,-0.8919764757156372,-10.09095287322998,0.03021947108209133,-0.028557538986206055,0.03396746516227722,40.421937899999996,-86.9035632,201.447,0.2070000022649765,-0.12800000607967377,0.21400000154972076,3,9
imu,1776824836.5727684,1241811257000,-0.21206551790237427,-0.9061253070831299,-10.134860038757324,0.0106680728495121,0.0006024001631885767,0.02387993596494198,40.421937899999996,-86.9035632,201.447,0.2070000022649765,-0.12800000607967377,0.21400000154972076,3,9
imu,1776824836.5824072,1241821257000,-0.22583989799022675,-0.997134804725647,-10.124382972717285,-0.025685597211122513,0.032696399837732315,-0.010708373039960861,40.421937899999996,-86.9035632,201.447,0.2070000022649765,-0.12800000607967377,0.21400000154972076,3,9
imu,1776824836.5922668,1241831256000,-0.09031274169683456,-0.9146016836166382,-10.133136749267578,-0.06321088969707489,0.10325857251882553,-0.05354677140712738,40.421937899999996,-86.9035632,201.447,0.2070000022649765,-0.12800000607967377,0.21400000154972076,3,9
imu,1776824836.6022887,1241841257000,-0.08345388621091843,-0.5773338675498962,-9.769658088684082,-0.09970532357692719,0.07477140426635742,-0.10040648281574249,40.421937899999996,-86.9035632,201.447,0.2070000022649765,-0.12800000607967377,0.21400000154972076,3,9
imu,1776824836.6119382,1241851257000,-0.02595440484583378,-0.3132791519165039,-9.740030288696289,-0.07523912191390991,0.017252452671527863,-0.0324576236307621,40.421937899999996,-86.9035632,201.447,0.2070000022649765,-0.12800000607967377,0.21400000154972076,3,9
imu,1776824836.62186,1241861257000,0.15557266771793365,-0.6353746652603149,-9.75200366973877,-0.056348126381635666,-0.07233861833810806,-0.04153231903910637,40.421937899999996,-86.9035632,201.447,0.2070000022649765,-0.12800000607967377,0.21400000154972076,3,9
imu,1776824836.6316917,1241871257000,-0.009734444320201874,-0.3644534945487976,-10.259232521057129,0.007856111973524094,-0.019069381058216095,0.007334655150771141,40.421937899999996,-86.9035632,201.447,0.2070000022649765,-0.12800000607967377,0.21400000154972076,3,9
imu,1776824836.6426525,1241881257000,0.0076443953439593315,-0.7116134762763977,-10.029403686523438,0.05363791808485985,0.03595332056283951,0.05126282572746277,40.421937899999996,-86.9035632,201.447,0.2070000022649765,-0.12800000607967377,0.21400000154972076,3,9
imu,1776824836.6515262,1241891257000,-0.08126245439052582,-0.9138586521148682,-9.790851593017578,0.07130166888237,0.05838583782315254,0.05954723805189133,40.421937899999996,-86.9035632,201.447,0.2070000022649765,-0.12800000607967377,0.21400000154972076,3,9
imu,1776824836.6624353,1241901257000,-0.06045042723417282,-0.8834183216094971,-9.667641639709473,0.054713305085897446,0.0538838729262352,0.05035318434238434,40.421937899999996,-86.9035632,201.447,0.2070000022649765,-0.12800000607967377,0.21400000154972076,3,9
imu,1776824836.6720965,1241911257000,-0.09228245168924332,-0.9612177610397339,-9.771774291992188,0.05479497089982033,0.05072377994656563,0.04987654089927673,40.421937899999996,-86.9035632,201.447,0.2070000022649765,-0.12800000607967377,0.21400000154972076,3,9
imu,1776824836.6820705,1241921257000,-0.10692163556814194,-1.1631115674972534,-9.746042251586914,0.038816772401332855,0.05539274588227272,0.024575984105467796,40.421937899999996,-86.9035632,201.447,0.2070000022649765,-0.12800000607967377,0.21400000154972076,3,9
imu,1776824836.6918788,1241931257000,-0.1382470726966858,-1.2029227018356323,-9.655491828918457,0.04840816929936409,0.0439341776072979,0.0030222758650779724,40.421937899999996,-86.9035632,201.447,0.2070000022649765,-0.12800000607967377,0.21400000154972076,3,9
imu,1776824836.7026584,1241941257000,-0.13782738149166107,-1.2832529544830322,-9.68164348602295,0.060563549399375916,0.02556997910141945,-0.023324312642216682,40.421937899999996,-86.9035632,201.447,0.2070000022649765,-0.12800000607967377,0.21400000154972076,3,9
imu,1776824836.7114322,1241951257000,-0.18779128789901733,-1.291078805923462,-9.6860933303833,0.07334812730550766,0.02190261334180832,-0.037059977650642395,40.421937899999996,-86.9035632,201.447,0.2070000022649765,-0.12800000607967377,0.21400000154972076,3,9
imu,1776824836.72123,1241961257000,-0.23356370627880096,-1.5403486490249634,-9.775813102722168,0.05149194598197937,0.043009620159864426,-0.044781219214200974,40.421937899999996,-86.9035632,201.447,0.2070000022649765,-0.12800000607967377,0.21400000154972076,3,9
imu,1776824836.7311006,1241971257000,-0.3671359121799469,-1.9017640352249146,-9.729632377624512,0.043858930468559265,0.06398128718137741,-0.07774835079908371,40.421937899999996,-86.9035632,201.447,0.2070000022649765,-0.12800000607967377,0.21400000154972076,3,9
imu,1776824836.7421253,1241981257000,-0.3903619050979614,-2.185797929763794,-9.895356178283691,0.0366726778447628,0.06546078622341156,-0.132729634642601,40.421937899999996,-86.9035632,201.447,0.2070000022649765,-0.12800000607967377,0.21400000154972076,3,9
imu,1776824836.7509472,1241991257000,-0.4531565010547638,-2.4289190769195557,-9.978157997131348,0.042960815131664276,0.09603915363550186,-0.19481027126312256,40.421937899999996,-86.9035632,201.447,0.2070000022649765,-0.12800000607967377,0.21400000154972076,3,9
imu,1776824836.7610445,1242001257000,-0.5104608535766602,-2.674798011779785,-10.12978744506836,0.026038456708192825,0.13455818593502045,-0.25265026092529297,40.421937899999996,-86.9035632,201.447,0.2070000022649765,-0.12800000607967377,0.21400000154972076,3,9
imu,1776824836.7729788,1242011257000,-0.5796109437942505,-2.9709479808807373,-10.237065315246582,-0.019606266170740128,0.1602715700864792,-0.3531637191772461,40.4219387,-86.9035629,201.264,-0.0820000022649765,0.09399999678134918,-0.10499999672174454,3,9
imu,1776824836.7816262,1242021257000,-0.5897018313407898,-3.132383108139038,-10.549941062927246,-0.014347899705171585,0.20617221295833588,-0.45668908953666687,40.4219387,-86.9035629,201.264,-0.0820000022649765,0.09399999678134918,-0.10499999672174454,3,9
imu,1776824836.7912807,1242031257000,-0.5856844186782837,-3.2527952194213867,-10.724145889282227,0.031123220920562744,0.28774410486221313,-0.5532078742980957,40.4219387,-86.9035629,201.264,-0.0820000022649765,0.09399999678134918,-0.10499999672174454,3,9
imu,1776824836.8009794,1242041257000,-0.8084580898284912,-3.2025396823883057,-10.682760238647461,0.05545534938573837,0.35933515429496765,-0.6410842537879944,40.4219387,-86.9035629,201.264,-0.0820000022649765,0.09399999678134918,-0.10499999672174454,3,9
imu,1776824836.8117857,1242051257000,-0.7696051001548767,-3.6430063247680664,-10.351967811584473,0.11952035129070282,0.41778719425201416,-0.7359650135040283,40.4219387,-86.9035629,201.264,-0.0820000022649765,0.09399999678134918,-0.10499999672174454,3,9
imu,1776824836.821628,1242061257000,-0.9463090896606445,-3.680314540863037,-10.350852966308594,0.1587052047252655,0.4312250316143036,-0.8818789720535278,40.4219387,-86.9035629,201.264,-0.0820000022649765,0.09399999678134918,-0.10499999672174454,3,9
imu,1776824836.8313675,1242071257000,-0.9783594608306885,-4.073404788970947,-10.090249061584473,0.19415925443172455,0.47481897473335266,-1.0269157886505127,40.4219387,-86.9035629,201.264,-0.0820000022649765,0.09399999678134918,-0.10499999672174454,3,9
imu,1776824836.8412147,1242081257000,-1.1521258354187012,-4.018444061279297,-10.065157890319824,0.20271100103855133,0.53058260679245,-1.2001186609268188,40.4219387,-86.9035629,201.264,-0.0820000022649765,0.09399999678134918,-0.10499999672174454,3,9
imu,1776824836.850915,1242091257000,-1.1029809713363647,-4.102290153503418,-9.940086364746094,0.2436133772134781,0.6092483997344971,-1.4193178415298462,40.4219387,-86.9035629,201.264,-0.0820000022649765,0.09399999678134918,-0.10499999672174454,3,9
imu,1776824836.8605988,1242101257000,-1.1992096900939941,-3.9493937492370605,-9.947108268737793,0.19625647366046906,0.6729844212532043,-1.6298002004623413,40.4219387,-86.9035629,201.264,-0.0820000022649765,0.09399999678134918,-0.10499999672174454,3,9
imu,1776824836.8703203,1242111257000,-1.2346488237380981,-3.84879469871521,-9.959810256958008,0.15853098034858704,0.7438884377479553,-1.9607971906661987,40.4219387,-86.9035629,201.264,-0.0820000022649765,0.09399999678134918,-0.10499999672174454,3,9
imu,1776824836.880265,1242121257000,-1.2011181116104126,-2.8227953910827637,-9.551998138427734,0.08711220324039459,0.739143431186676,-2.1201465129852295,40.4219387,-86.9035629,201.264,-0.0820000022649765,0.09399999678134918,-0.10499999672174454,3,9
imu,1776824836.8910115,1242131257000,-0.9917265176773071,-2.2933120727539062,-9.63158893585205,0.05580773204565048,0.7385435700416565,-2.2948060035705566,40.4219387,-86.9035629,201.264,-0.0820000022649765,0.09399999678134918,-0.10499999672174454,3,9
imu,1776824836.900709,1242141257000,-0.7442634701728821,-1.4008607864379883,-9.597854614257812,-0.04529936611652374,0.7456050515174866,-2.3965680599212646,40.4219387,-86.9035629,201.264,-0.0820000022649765,0.09399999678134918,-0.10499999672174454,3,9
imu,1776824836.9104223,1242151257000,-0.6245178580284119,-0.659598171710968,-9.457401275634766,-0.11483243852853775,0.7189614772796631,-2.4385673999786377,40.4219387,-86.9035629,201.264,-0.0820000022649765,0.09399999678134918,-0.10499999672174454,3,9
imu,1776824836.9201398,1242161257000,-0.5529518127441406,-0.22795362770557404,-9.289772033691406,-0.09687131643295288,0.6887558698654175,-2.4331843852996826,40.4219387,-86.9035629,201.264,-0.0820000022649765,0.09399999678134918,-0.10499999672174454,3,9
imu,1776824836.9300885,1242171257000,-0.5717408061027527,-0.15195533633232117,-9.058305740356445,-0.121719129383564,0.6258244514465332,-2.4269425868988037,40.4219387,-86.9035629,201.264,-0.0820000022649765,0.09399999678134918,-0.10499999672174454,3,9
imu,1776824836.939914,1242181257000,-0.5574039816856384,-0.1871689260005951,-8.940754890441895,-0.04739733412861824,0.4995362460613251,-2.4115817546844482,40.4219387,-86.9035629,201.264,-0.0820000022649765,0.09399999678134918,-0.10499999672174454,3,9
imu,1776824836.9496124,1242191257000,-0.3061058819293976,-0.36363399028778076,-9.194121360778809,-0.007218881975859404,0.3741190433502197,-2.403818368911743,40.4219387,-86.9035629,201.264,-0.0820000022649765,0.09399999678134918,-0.10499999672174454,3,9
imu,1776824836.9605377,1242201257000,-0.09964954853057861,-0.07395313680171967,-9.341334342956543,0.053433142602443695,0.3055914640426636,-2.3790438175201416,40.4219387,-86.9035629,201.264,-0.0820000022649765,0.09399999678134918,-0.10499999672174454,3,9
imu,1776824836.9700167,1242211257000,-0.062465596944093704,0.18670839071273804,-9.558588981628418,0.10146848857402802,0.25035250186920166,-2.3032538890838623,40.4219387,-86.9035629,201.264,-0.0820000022649765,0.09399999678134918,-0.10499999672174454,3,9
imu,1776824836.9799123,1242221257000,0.27100273966789246,0.39138853549957275,-9.472216606140137,0.072438545525074,0.2022056132555008,-2.23180890083313,40.4219387,-86.9035629,201.264,-0.0820000022649765,0.09399999678134918,-0.10499999672174454,3,9
imu,1776824836.9895504,1242231257000,0.30441057682037354,0.9234408736228943,-9.300104141235352,-0.011821072548627853,0.12894000113010406,-2.1110947132110596,40.4219387,-86.9035629,201.264,-0.0820000022649765,0.09399999678134918,-0.10499999672174454,3,9
imu,1776824836.9994369,1242241257000,0.46393704414367676,0.837554395198822,-9.438592910766602,-0.04380040988326073,0.0749613344669342,-2.0005435943603516,40.4219387,-86.9035629,201.264,-0.0820000022649765,0.09399999678134918,-0.10499999672174454,3,9
imu,1776824837.0093446,1242251257000,0.6808009743690491,1.015889286994934,-9.483792304992676,-0.057179175317287445,0.012439565733075142,-1.8929035663604736,40.4219387,-86.9035629,201.264,-0.0820000022649765,0.09399999678134918,-0.10499999672174454,3,9
imu,1776824837.0191534,1242261257000,0.7661814093589783,1.2619138956069946,-9.514551162719727,-0.12065566331148148,-0.047350235283374786,-1.7508944272994995,40.4219387,-86.9035629,201.264,-0.0820000022649765,0.09399999678134918,-0.10499999672174454,3,9
imu,1776824837.0290816,1242271257000,0.8611834645271301,1.1008070707321167,-9.807071685791016,-0.19784101843833923,-0.06421343237161636,-1.643495798110962,40.4219387,-86.9035629,201.264,-0.0820000022649765,0.09399999678134918,-0.10499999672174454,3,9
imu,1776824837.039093,1242281257000,1.0263434648513794,1.2316651344299316,-9.786818504333496,-0.269898921251297,-0.04904092475771904,-1.566327452659607,40.4219387,-86.9035629,201.264,-0.0820000022649765,0.09399999678134918,-0.10499999672174454,3,9
imu,1776824837.048801,1242291257000,1.1353613138198853,1.6782660484313965,-9.490156173706055,-0.26233723759651184,-0.056271832436323166,-1.4067789316177368,40.4219387,-86.9035629,201.264,-0.0820000022649765,0.09399999678134918,-0.10499999672174454,3,9
imu,1776824837.0602536,1242301257000,1.0003557205200195,1.4882420301437378,-9.579395294189453,-0.1782066822052002,-0.09637078642845154,-1.1828604936599731,40.4219387,-86.9035629,201.264,-0.0820000022649765,0.09399999678134918,-0.10499999672174454,3,9
imu,1776824837.0690396,1242311257000,1.1515400409698486,1.0139905214309692,-9.609931945800781,-0.07772072404623032,-0.09991384297609329,-1.0073577165603638,40.4219387,-86.9035629,201.264,-0.0820000022649765,0.09399999678134918,-0.10499999672174454,3,9
imu,1776824837.0788434,1242321257000,1.2200995683670044,0.5181586742401123,-9.662074089050293,-0.025214316323399544,-0.16203634440898895,-0.8813061714172363,40.4219387,-86.9035629,201.264,-0.0820000022649765,0.09399999678134918,-0.10499999672174454,3,9
imu,1776824837.0884545,1242331257000,1.07631254196167,0.014603866264224052,-9.823201179504395,-0.029472041875123978,-0.24413487315177917,-0.8000295758247375,40.4219387,-86.9035629,201.264,-0.0820000022649765,0.09399999678134918,-0.10499999672174454,3,9
imu,1776824837.098327,1242341257000,1.1018296480178833,-0.5013443231582642,-10.203587532043457,-0.013548744842410088,-0.2784450650215149,-0.7886502742767334,40.4219387,-86.9035629,201.264,-0.0820000022649765,0.09399999678134918,-0.10499999672174454,3,9
imu,1776824837.1080165,1242351257000,1.127952218055725,-0.43568694591522217,-10.187027931213379,0.03300788998603821,-0.21650874614715576,-0.7820902466773987,40.4219387,-86.9035629,201.264,-0.0820000022649765,0.09399999678134918,-0.10499999672174454,3,9
imu,1776824837.1178808,1242361257000,1.1542326211929321,-0.2036716639995575,-10.2244234085083,0.03530283644795418,-0.1706397533416748,-0.8040085434913635,40.4219387,-86.9035629,201.264,-0.0820000022649765,0.09399999678134918,-0.10499999672174454,3,9
imu,1776824837.1288517,1242371257000,1.2519570589065552,0.3033492863178253,-10.124115943908691,0.025645539164543152,-0.11079594492912292,-0.7716161012649536,40.4219387,-86.9035629,201.264,-0.0820000022649765,0.09399999678134918,-0.10499999672174454,3,9
imu,1776824837.1384096,1242381257000,1.2465029954910278,0.4697116017341614,-10.157455444335938,0.0014264271594583988,-0.10319308936595917,-0.6958948969841003,40.4219387,-86.9035629,201.264,-0.0820000022649765,0.09399999678134918,-0.10499999672174454,3,9
imu,1776824837.148204,1242391257000,1.1703664064407349,0.3417418599128723,-10.24148178100586,0.05532342940568924,-0.06574903428554535,-0.6319790482521057,40.4219387,-86.9035629,201.264,-0.0820000022649765,0.09399999678134918,-0.10499999672174454,3,9
imu,1776824837.1579833,1242401257000,1.040096640586853,-0.09069424867630005,-10.188032150268555,0.1694597452878952,-0.09149341285228729,-0.5868361592292786,40.4219387,-86.9035629,201.264,-0.0820000022649765,0.09399999678134918,-0.10499999672174454,3,9
imu,1776824837.1677651,1242411257000,1.0393450260162354,-0.47998321056365967,-10.223785400390625,0.14024126529693604,-0.1219179704785347,-0.5991876721382141,40.4219387,-86.9035629,201.264,-0.0820000022649765,0.09399999678134918,-0.10499999672174454,3,9
imu,1776824837.177595,1242421257000,0.7928123474121094,-0.7448431253433228,-10.223641395568848,0.13717521727085114,-0.08271948993206024,-0.6193023920059204,40.4219387,-86.9035629,201.264,-0.0820000022649765,0.09399999678134918,-0.10499999672174454,3,9
imu,1776824837.1873477,1242431257000,0.5417152047157288,-1.0639179944992065,-10.132040023803711,0.159572035074234,-0.04559909552335739,-0.675136387348175,40.4219387,-86.9035629,201.264,-0.0820000022649765,0.09399999678134918,-0.10499999672174454,3,9
imu,1776824837.1970296,1242441257000,0.34676942229270935,-1.2575210332870483,-9.911800384521484,0.16040433943271637,-0.01975465565919876,-0.7277945876121521,40.4219387,-86.9035629,201.264,-0.0820000022649765,0.09399999678134918,-0.10499999672174454,3,9
imu,1776824837.2077954,1242451256000,0.14156614243984222,-1.6760481595993042,-9.654194831848145,0.14342334866523743,-0.045161135494709015,-0.8191909193992615,40.4219387,-86.9035629,201.264,-0.0820000022649765,0.09399999678134918,-0.10499999672174454,3,9
imu,1776824837.2177691,1242461257000,0.0790458619594574,-1.680600881576538,-9.85595703125,0.1483825296163559,-0.0896858423948288,-0.9483063817024231,40.4219387,-86.9035629,201.264,-0.0820000022649765,0.09399999678134918,-0.10499999672174454,3,9
imu,1776824837.2272582,1242471257000,0.11385621130466461,-1.7315007448196411,-10.008913040161133,0.14683592319488525,-0.06405719369649887,-1.062542200088501,40.4219387,-86.9035629,201.264,-0.0820000022649765,0.09399999678134918,-0.10499999672174454,3,9
imu,1776824837.2371318,1242481257000,0.0937313437461853,-1.8545655012130737,-10.180721282958984,0.14287179708480835,-0.013413437642157078,-1.183080792427063,40.4219387,-86.9035629,201.264,-0.0820000022649765,0.09399999678134918,-0.10499999672174454,3,9
imu,1776824837.2468476,1242491257000,0.02990068681538105,-1.8594170808792114,-10.178683280944824,0.15812358260154724,0.051675885915756226,-1.3123749494552612,40.4219387,-86.9035629,201.264,-0.0820000022649765,0.09399999678134918,-0.10499999672174454,3,9
imu,1776824837.2566478,1242501257000,-0.22474314272403717,-1.8220447301864624,-9.854004859924316,0.19973410665988922,0.15136247873306274,-1.4065706729888916,40.4219387,-86.9035629,201.264,-0.0820000022649765,0.09399999678134918,-0.10499999672174454,3,9
imu,1776824837.2673383,1242511257000,-0.40696054697036743,-1.9626423120498657,-9.319064140319824,0.18107059597969055,0.13755328953266144,-1.5408604145050049,40.4219404,-86.9035626,201.012,0.22599999606609344,0.11699999868869781,-0.05000000074505806,3,9
imu,1776824837.277104,1242521257000,-0.5700952410697937,-1.948969841003418,-9.124420166015625,0.16122089326381683,0.07033313065767288,-1.7308748960494995,40.4219404,-86.9035626,201.012,0.22599999606609344,0.11699999868869781,-0.05000000074505806,3,9
imu,1776824837.2866998,1242531257000,-0.41958504915237427,-1.669793725013733,-9.427163124084473,0.1090940311551094,0.05670349672436714,-1.9307407140731812,40.4219404,-86.9035626,201.012,0.22599999606609344,0.11699999868869781,-0.05000000074505806,3,9
imu,1776824837.2965183,1242541257000,-0.27767887711524963,-0.8882923722267151,-9.519165992736816,0.08926229178905487,0.09153507649898529,-2.078691244125366,40.4219404,-86.9035626,201.012,0.22599999606609344,0.11699999868869781,-0.05000000074505806,3,9
imu,1776824837.3064346,1242551257000,-0.2138868123292923,-0.32173433899879456,-9.442397117614746,0.0885874330997467,0.08483096212148666,-2.164332151412964,40.4219404,-86.9035626,201.012,0.22599999606609344,0.11699999868869781,-0.05000000074505806,3,9
imu,1776824837.3160489,1242561257000,0.02488275244832039,0.4611591398715973,-9.447283744812012,0.08476079255342484,0.0640067383646965,-2.1916234493255615,40.4219404,-86.9035626,201.012,0.22599999606609344,0.11699999868869781,-0.05000000074505806,3,9
imu,1776824837.3257937,1242571257000,0.3357745409011841,1.1079456806182861,-9.680602073669434,0.10096581280231476,0.07647552341222763,-2.1523239612579346,40.4219404,-86.9035626,201.012,0.22599999606609344,0.11699999868869781,-0.05000000074505806,3,9
imu,1776824837.336621,1242581257000,0.3558354675769806,1.026322364807129,-9.735252380371094,0.12423436343669891,0.08958815783262253,-2.0890119075775146,40.4219404,-86.9035626,201.012,0.22599999606609344,0.11699999868869781,-0.05000000074505806,3,9
imu,1776824837.3463473,1242591257000,0.36365965008735657,0.7177895903587341,-9.884955406188965,0.10728570818901062,0.1347157210111618,-2.076425075531006,40.4219404,-86.9035626,201.012,0.22599999606609344,0.11699999868869781,-0.05000000074505806,3,9
imu,1776824837.3564117,1242601257000,0.3265860080718994,0.6931483149528503,-9.784567832946777,0.07093410938978195,0.21953734755516052,-2.061574935913086,40.4219404,-86.9035626,201.012,0.22599999606609344,0.11699999868869781,-0.05000000074505806,3,9
imu,1776824837.366424,1242611257000,0.3379422426223755,0.6120813488960266,-9.544384956359863,0.057231929153203964,0.23984095454216003,-2.0794904232025146,40.4219404,-86.9035626,201.012,0.22599999606609344,0.11699999868869781,-0.05000000074505806,3,9
imu,1776824837.376794,1242621257000,0.29255616664886475,0.5530313849449158,-9.54715633392334,0.020885655656456947,0.2416464388370514,-2.1085009574890137,40.4219404,-86.9035626,201.012,0.22599999606609344,0.11699999868869781,-0.05000000074505806,3,9
imu,1776824837.3861408,1242631257000,0.3412564992904663,0.5599585175514221,-9.548174858093262,0.034755680710077286,0.24182642996311188,-2.167057514190674,40.4219404,-86.9035626,201.012,0.22599999606609344,0.11699999868869781,-0.05000000074505806,3,9
imu,1776824837.3959317,1242641257000,0.4028717577457428,0.6838924288749695,-9.474370956420898,0.07045814394950867,0.23722697794437408,-2.180354118347168,40.4219404,-86.9035626,201.012,0.22599999606609344,0.11699999868869781,-0.05000000074505806,3,9
imu,1776824837.405932,1242651257000,0.44561752676963806,0.7032022476196289,-9.512770652770996,0.07071661204099655,0.18780361115932465,-2.17460298538208,40.4219404,-86.9035626,201.012,0.22599999606609344,0.11699999868869781,-0.05000000074505806,3,9
imu,1776824837.415676,1242661257000,0.4114101529121399,0.827327311038971,-9.565563201904297,0.0870288535952568,0.20291346311569214,-2.178391695022583,40.4219404,-86.9035626,201.012,0.22599999606609344,0.11699999868869781,-0.05000000074505806,3,9
imu,1776824837.4252405,1242671257000,0.5840399265289307,1.2261930704116821,-9.32419204711914,0.12517403066158295,0.17844738066196442,-2.171757936477661,40.4219404,-86.9035626,201.012,0.22599999606609344,0.11699999868869781,-0.05000000074505806,3,9
imu,1776824837.4349556,1242681257000,0.8255242705345154,1.3649243116378784,-9.338663101196289,0.016272112727165222,0.11491979658603668,-2.1376917362213135,40.4219404,-86.9035626,201.012,0.22599999606609344,0.11699999868869781,-0.05000000074505806,3,9
imu,1776824837.4447763,1242691257000,0.9949831962585449,1.2462897300720215,-9.529085159301758,-0.041498761624097824,0.045882757753133774,-2.1285572052001953,40.4219404,-86.9035626,201.012,0.22599999606609344,0.11699999868869781,-0.05000000074505806,3,9
imu,1776824837.4545472,1242701257000,1.0959211587905884,0.746842086315155,-10.074220657348633,0.06231123208999634,0.10368330031633377,-2.144808292388916,40.4219404,-86.9035626,201.012,0.22599999606609344,0.11699999868869781,-0.05000000074505806,3,9
imu,1776824837.4652164,1242711257000,0.6873347163200378,1.4813443422317505,-9.855293273925781,-0.01986675336956978,0.1818784922361374,-2.0574400424957275,40.4219404,-86.9035626,201.012,0.22599999606609344,0.11699999868869781,-0.05000000074505806,3,9
imu,1776824837.4749534,1242721257000,0.9053645133972168,1.0371414422988892,-9.764493942260742,0.008545150980353355,0.23081110417842865,-1.9920415878295898,40.4219404,-86.9035626,201.012,0.22599999606609344,0.11699999868869781,-0.05000000074505806,3,9
imu,1776824837.4847414,1242731257000,0.973925769329071,0.6925340294837952,-9.82888412475586,0.055420972406864166,0.17993029952049255,-1.9762792587280273,40.4219404,-86.9035626,201.012,0.22599999606609344,0.11699999868869781,-0.05000000074505806,3,9
imu,1776824837.494433,1242741257000,0.877812922000885,1.327991247177124,-10.000837326049805,0.11802757531404495,0.1574244201183319,-1.8468958139419556,40.4219404,-86.9035626,201.012,0.22599999606609344,0.11699999868869781,-0.05000000074505806,3,9
imu,1776824837.504194,1242751257000,0.9689533710479736,0.7225343585014343,-10.269423484802246,0.15275518596172333,0.25979557633399963,-1.8625041246414185,40.4219404,-86.9035626,201.012,0.22599999606609344,0.11699999868869781,-0.05000000074505806,3,9
imu,1776824837.51404,1242761257000,0.9561013579368591,0.1976204216480255,-9.93198299407959,0.0718289390206337,0.3440921902656555,-1.9553827047348022,40.4219404,-86.9035626,201.012,0.22599999606609344,0.11699999868869781,-0.05000000074505806,3,9
imu,1776824837.5238662,1242771257000,0.6414623260498047,0.52253657579422,-10.100051879882812,0.05220429599285126,0.453499972820282,-1.986945629119873,40.4219404,-86.9035626,201.012,0.22599999606609344,0.11699999868869781,-0.05000000074505806,3,9
imu,1776824837.5346432,1242781257000,0.9510921239852905,-0.2548009753227234,-9.932172775268555,0.0612049363553524,0.5270563960075378,-2.0766777992248535,40.4219404,-86.9035626,201.012,0.22599999606609344,0.11699999868869781,-0.05000000074505806,3,9
imu,1776824837.5443103,1242791257000,0.9115250110626221,0.9729594588279724,-9.498920440673828,0.14978672564029694,0.47624966502189636,-2.2172579765319824,40.4219404,-86.9035626,201.012,0.22599999606609344,0.11699999868869781,-0.05000000074505806,3,9
imu,1776824837.5540164,1242801257000,1.154719591140747,0.7053048014640808,-10.02653694152832,0.14743128418922424,0.5386558175086975,-2.1162829399108887,40.4219404,-86.9035626,201.012,0.22599999606609344,0.11699999868869781,-0.05000000074505806,3,9
imu,1776824837.5639346,1242811257000,0.9935469031333923,1.9441335201263428,-8.919340133666992,0.09715428948402405,0.411190390586853,-2.0494136810302734,40.4219404,-86.9035626,201.012,0.22599999606609344,0.11699999868869781,-0.05000000074505806,3,9
imu,1776824837.5735855,1242821257000,1.6604291200637817,1.850609540939331,-9.042520523071289,0.042086731642484665,0.2149452418088913,-1.7533419132232666,40.4219404,-86.9035626,201.012,0.22599999606609344,0.11699999868869781,-0.05000000074505806,3,9
imu,1776824837.583401,1242831257000,1.331386923789978,1.5586849451065063,-9.214350700378418,-0.048081185668706894,0.08910161256790161,-1.5806254148483276,40.4219404,-86.9035626,201.012,0.22599999606609344,0.11699999868869781,-0.05000000074505806,3,9
imu,1776824837.5931149,1242841257000,1.1690855026245117,0.883780300617218,-9.519396781921387,-0.06557314097881317,0.04653257504105568,-1.5142563581466675,40.4219404,-86.9035626,201.012,0.22599999606609344,0.11699999868869781,-0.05000000074505806,3,9
imu,1776824837.602942,1242851257000,0.9541945457458496,0.29742106795310974,-9.321271896362305,-0.06367778778076172,0.05289985239505768,-1.5223760604858398,40.4219404,-86.9035626,201.012,0.22599999606609344,0.11699999868869781,-0.05000000074505806,3,9
imu,1776824837.613815,1242861257000,1.0562723875045776,-0.715146541595459,-9.120142936706543,0.09217909723520279,0.014938618056476116,-1.7689465284347534,40.4219404,-86.9035626,201.012,0.22599999606609344,0.11699999868869781,-0.05000000074505806,3,9
imu,1776824837.6236947,1242871257000,0.7550502419471741,0.6520249247550964,-9.460771560668945,-0.03676903620362282,-0.05013943463563919,-1.6413508653640747,40.4219404,-86.9035626,201.012,0.22599999606609344,0.11699999868869781,-0.05000000074505806,3,9
imu,1776824837.633316,1242881257000,1.145474910736084,0.2217869609594345,-9.866313934326172,0.04024442657828331,-0.005184192676097155,-1.6266695261001587,40.4219404,-86.9035626,201.012,0.22599999606609344,0.11699999868869781,-0.05000000074505806,3,9
imu,1776824837.6431537,1242891257000,1.394769549369812,0.4233061969280243,-9.179580688476562,0.37415194511413574,0.12157785147428513,-1.9636784791946411,40.4219404,-86.9035626,201.012,0.22599999606609344,0.11699999868869781,-0.05000000074505806,3,9
imu,1776824837.6527507,1242901257000,1.4611291885375977,0.8144315481185913,-9.655454635620117,0.0962991863489151,0.0741533413529396,-1.5619499683380127,40.4219404,-86.9035626,201.012,0.22599999606609344,0.11699999868869781,-0.05000000074505806,3,9
imu,1776824837.662548,1242911257000,0.7642114162445068,-1.2342705726623535,-10.315435409545898,0.08788520842790604,0.12306421250104904,-1.7241252660751343,40.4219404,-86.9035626,201.012,0.22599999606609344,0.11699999868869781,-0.05000000074505806,3,9
imu,1776824837.6735923,1242921257000,0.8748365640640259,2.1805567741394043,-8.557028770446777,-0.04083999991416931,-0.021359752863645554,-1.7392657995224,40.4219404,-86.9035626,201.012,0.22599999606609344,0.11699999868869781,-0.05000000074505806,3,9
imu,1776824837.682956,1242931257000,1.461849570274353,1.6372666358947754,-9.549072265625,-0.08491703122854233,0.042665716260671616,-1.5270754098892212,40.4219404,-86.9035626,201.012,0.22599999606609344,0.11699999868869781,-0.05000000074505806,3,9
imu,1776824837.692578,1242941257000,0.929021418094635,1.5272332429885864,-9.34398365020752,-0.14722193777561188,0.09716125577688217,-1.452842354774475,40.4219404,-86.9035626,201.012,0.22599999606609344,0.11699999868869781,-0.05000000074505806,3,9
imu,1776824837.702633,1242951257000,0.8585593700408936,0.65938401222229,-9.603620529174805,-0.03980677202343941,0.09425331652164459,-1.4283802509307861,40.4219404,-86.9035626,201.012,0.22599999606609344,0.11699999868869781,-0.05000000074505806,3,9
imu,1776824837.7124786,1242961257000,1.6175546646118164,0.9214021563529968,-8.427974700927734,0.301367849111557,0.06506045162677765,-1.6680718660354614,40.4219404,-86.9035626,201.012,0.22599999606609344,0.11699999868869781,-0.05000000074505806,3,9
imu,1776824837.72222,1242971257000,1.2884676456451416,1.5801541805267334,-9.640105247497559,-0.04670451581478119,-0.031176434829831123,-1.200888991355896,40.4219404,-86.9035626,201.012,0.22599999606609344,0.11699999868869781,-0.05000000074505806,3,9
imu,1776824837.732108,1242981257000,0.6884655356407166,0.6376321911811829,-9.446855545043945,0.009646736085414886,0.043334316462278366,-1.1443557739257812,40.4219404,-86.9035626,201.012,0.22599999606609344,0.11699999868869781,-0.05000000074505806,3,9
imu,1776824837.7417629,1242991257000,1.0044827461242676,0.3875008225440979,-9.379664421081543,-0.06734145432710648,0.003698940621688962,-1.1808991432189941,40.4219404,-86.9035626,201.012,0.22599999606609344,0.11699999868869781,-0.05000000074505806,3,9
imu,1776824837.7527757,1243001257000,0.9851343631744385,0.8554326295852661,-9.17093276977539,-0.029064076021313667,-0.0570906326174736,-1.169881820678711,40.4219404,-86.9035626,201.012,0.22599999606609344,0.11699999868869781,-0.05000000074505806,3,9
imu,1776824837.763672,1243011257000,0.9603422284126282,0.7399798631668091,-9.354558944702148,-0.04073252156376839,-0.10310415178537369,-1.1098581552505493,40.421941,-86.9035621,200.988,-0.15299999713897705,0.0989999994635582,-0.5210000276565552,3,9
imu,1776824837.773142,1243021257000,1.0245612859725952,0.3723953664302826,-9.569307327270508,-0.11342637240886688,-0.1130031868815422,-1.1459808349609375,40.421941,-86.9035621,200.988,-0.15299999713897705,0.0989999994635582,-0.5210000276565552,3,9
imu,1776824837.781554,1243031257000,0.9761825203895569,0.6980180144309998,-9.772089958190918,-0.12733571231365204,-0.09993015229701996,-1.1678135395050049,40.421941,-86.9035621,200.988,-0.15299999713897705,0.0989999994635582,-0.5210000276565552,3,9
imu,1776824837.7912796,1243041257000,1.0442310571670532,0.8930892944335938,-9.737325668334961,-0.12234557420015335,-0.089934341609478,-1.1625298261642456,40.421941,-86.9035621,200.988,-0.15299999713897705,0.0989999994635582,-0.5210000276565552,3,9
imu,1776824837.8010328,1243051257000,0.9936726689338684,1.1107752323150635,-9.83944034576416,-0.08657664060592651,-0.06737130135297775,-1.1320701837539673,40.421941,-86.9035621,200.988,-0.15299999713897705,0.0989999994635582,-0.5210000276565552,3,9
imu,1776824837.8118563,1243061257000,0.9953588843345642,1.446358323097229,-9.868135452270508,-0.11243855208158493,-0.04518195614218712,-1.0841997861862183,40.421941,-86.9035621,200.988,-0.15299999713897705,0.0989999994635582,-0.5210000276565552,3,9
imu,1776824837.8217149,1243071256000,0.8441769480705261,1.7086135149002075,-9.683699607849121,-0.1099536269903183,0.007895948365330696,-0.9881935119628906,40.421941,-86.9035621,200.988,-0.15299999713897705,0.0989999994635582,-0.5210000276565552,3,9
imu,1776824837.8316388,1243081257000,0.8504135012626648,1.9110726118087769,-9.431846618652344,-0.00018396880477666855,-0.03490903601050377,-0.8502241373062134,40.421941,-86.9035621,200.988,-0.15299999713897705,0.0989999994635582,-0.5210000276565552,3,9
imu,1776824837.8412108,1243091257000,0.7543270587921143,1.2280573844909668,-9.365116119384766,0.05777270346879959,-0.1440483033657074,-0.7113141417503357,40.421941,-86.9035621,200.988,-0.15299999713897705,0.0989999994635582,-0.5210000276565552,3,9
imu,1776824837.8512187,1243101257000,0.6570912003517151,0.6784613132476807,-9.466064453125,0.045064158737659454,-0.22311393916606903,-0.6790029406547546,40.421941,-86.9035621,200.988,-0.15299999713897705,0.0989999994635582,-0.5210000276565552,3,9
imu,1776824837.8614128,1243111257000,0.7311246991157532,0.36709320545196533,-9.62379264831543,0.03008146584033966,-0.25878745317459106,-0.6769911050796509,40.421941,-86.9035621,200.988,-0.15299999713897705,0.0989999994635582,-0.5210000276565552,3,9
imu,1776824837.8711457,1243121257000,0.4253450334072113,0.6912079453468323,-9.3212251663208,0.03138458728790283,-0.3158293664455414,-0.6769968271255493,40.421941,-86.9035621,200.988,-0.15299999713897705,0.0989999994635582,-0.5210000276565552,3,9
imu,1776824837.880815,1243131257000,0.6541851162910461,0.870634138584137,-9.587484359741211,0.04229661449790001,-0.35223451256752014,-0.6643124222755432,40.421941,-86.9035621,200.988,-0.15299999713897705,0.0989999994635582,-0.5210000276565552,3,9
imu,1776824837.891829,1243141257000,0.5890364646911621,1.0424144268035889,-9.509907722473145,0.06186608225107193,-0.3952900171279907,-0.5987167954444885,40.421941,-86.9035621,200.988,-0.15299999713897705,0.0989999994635582,-0.5210000276565552,3,9
imu,1776824837.9005806,1243151257000,0.5115641951560974,1.064850091934204,-9.488780975341797,0.09262219816446304,-0.4263124465942383,-0.5450811982154846,40.421941,-86.9035621,200.988,-0.15299999713897705,0.0989999994635582,-0.5210000276565552,3,9
imu,1776824837.910392,1243161257000,0.7361629605293274,1.196044921875,-9.73116397857666,0.1044309213757515,-0.41209566593170166,-0.48110511898994446,40.421941,-86.9035621,200.988,-0.15299999713897705,0.0989999994635582,-0.5210000276565552,3,9
imu,1776824837.9201024,1243171257000,0.4398861229419708,1.010711669921875,-9.077284812927246,0.05391976609826088,-0.4028802216053009,-0.4652458429336548,40.421941,-86.9035621,200.988,-0.15299999713897705,0.0989999994635582,-0.5210000276565552,3,9
imu,1776824837.9310665,1243181257000,0.35180842876434326,1.002446174621582,-9.22914981842041,9.140605106949806e-05,-0.4904843866825104,-0.49034029245376587,40.421941,-86.9035621,200.988,-0.15299999713897705,0.0989999994635582,-0.5210000276565552,3,9
imu,1776824837.9407804,1243191257000,0.6953970193862915,1.2721410989761353,-9.533195495605469,-0.09741248935461044,-0.6028650999069214,-0.4673875570297241,40.421941,-86.9035621,200.988,-0.15299999713897705,0.0989999994635582,-0.5210000276565552,3,9
imu,1776824837.9506032,1243201256000,0.7334199547767639,1.1948912143707275,-10.097606658935547,-0.08615566790103912,-0.5448287725448608,-0.4409622848033905,40.421941,-86.9035621,200.988,-0.15299999713897705,0.0989999994635582,-0.5210000276565552,3,9
imu,1776824837.9601564,1243211257000,0.497704416513443,1.1637144088745117,-9.347858428955078,-0.09725955128669739,-0.43566375970840454,-0.39967969059944153,40.421941,-86.9035621,200.988,-0.15299999713897705,0.0989999994635582,-0.5210000276565552,3,9
imu,1776824837.9710226,1243221257000,0.5620814561843872,1.104835867881775,-9.571915626525879,-0.06197667866945267,-0.49619919061660767,-0.34338170289993286,40.421941,-86.9035621,200.988,-0.15299999713897705,0.0989999994635582,-0.5210000276565552,3,9
imu,1776824837.9796774,1243231257000,0.029251577332615852,1.1276767253875732,-9.511608123779297,-0.035709768533706665,-0.37043872475624084,-0.3088158667087555,40.421941,-86.9035621,200.988,-0.15299999713897705,0.0989999994635582,-0.5210000276565552,3,9
imu,1776824837.9906468,1243241257000,0.6294678449630737,1.0193266868591309,-9.315081596374512,-0.032096732407808304,-0.5074500441551208,-0.2845419645309448,40.421941,-86.9035621,200.988,-0.15299999713897705,0.0989999994635582,-0.5210000276565552,3,9
imu,1776824837.999553,1243251257000,0.4135892391204834,1.323115587234497,-9.643186569213867,-0.02906704880297184,-0.5166993141174316,-0.25708600878715515,40.421941,-86.9035621,200.988,-0.15299999713897705,0.0989999994635582,-0.5210000276565552,3,9
imu,1776824838.0552554,1243261257000,0.32765403389930725,1.4626710414886475,-9.763175010681152,-0.0313725620508194,-0.4406665861606598,-0.2175866961479187,40.421941,-86.9035621,200.988,-0.15299999713897705,0.0989999994635582,-0.5210000276565552,3,9
imu,1776824838.0563672,1243271257000,0.6543521881103516,1.538873553276062,-9.827113151550293,-0.041656799614429474,-0.38822975754737854,-0.19622743129730225,40.421941,-86.9035621,200.988,-0.15299999713897705,0.0989999994635582,-0.5210000276565552,3,9
imu,1776824838.0564132,1243281257000,0.529218316078186,1.7568899393081665,-9.044108390808105,-0.058294933289289474,-0.41445615887641907,-0.17280647158622742,40.421941,-86.9035621,200.988,-0.15299999713897705,0.0989999994635582,-0.5210000276565552,3,9
imu,1776824838.0564485,1243291257000,0.636673092842102,1.7962627410888672,-9.703445434570312,-0.021527428179979324,-0.4638851284980774,-0.11601124703884125,40.421941,-86.9035621,200.988,-0.15299999713897705,0.0989999994635582,-0.5210000276565552,3,9
imu,1776824838.056482,1243301257000,0.04220722243189812,1.4434287548065186,-9.42335033416748,0.07201666384935379,-0.38067561388015747,-0.07444808632135391,40.421941,-86.9035621,200.988,-0.15299999713897705,0.0989999994635582,-0.5210000276565552,3,9
imu,1776824838.0597675,1243311257000,0.280602365732193,1.018510103225708,-9.647542953491211,0.10360859334468842,-0.4866082966327667,-0.06799612939357758,40.421941,-86.9035621,200.988,-0.15299999713897705,0.0989999994635582,-0.5210000276565552,3,9
imu,1776824838.06939,1243321257000,0.09295031428337097,0.6920819878578186,-9.935738563537598,0.10657093673944473,-0.42084795236587524,-0.09051261842250824,40.421941,-86.9035621,200.988,-0.15299999713897705,0.0989999994635582,-0.5210000276565552,3,9
imu,1776824838.0805771,1243331257000,0.04569770768284798,0.44079843163490295,-9.764363288879395,0.10972680896520615,-0.3585616648197174,-0.1319432109594345,40.421941,-86.9035621,200.988,-0.15299999713897705,0.0989999994635582,-0.5210000276565552,3,9
imu,1776824838.0902472,1243341257000,-0.05765536427497864,0.7275410890579224,-9.54040813446045,0.13647738099098206,-0.3411373496055603,-0.18605101108551025,40.421941,-86.9035621,200.988,-0.15299999713897705,0.0989999994635582,-0.5210000276565552,3,9
imu,1776824838.1000805,1243351257000,-0.06370533257722855,1.0543051958084106,-9.993922233581543,0.15776176750659943,-0.2130516618490219,-0.22988465428352356,40.421941,-86.9035621,200.988,-0.15299999713897705,0.0989999994635582,-0.5210000276565552,3,9
imu,1776824838.109759,1243361257000,0.006766600999981165,1.2733216285705566,-9.097411155700684,0.13357844948768616,-0.16807450354099274,-0.26221078634262085,40.421941,-86.9035621,200.988,-0.15299999713897705,0.0989999994635582,-0.5210000276565552,3,9
imu,1776824838.1196318,1243371257000,-0.1730440855026245,1.8313310146331787,-8.720763206481934,0.14241498708724976,-0.3446403443813324,-0.24435630440711975,40.421941,-86.9035621,200.988,-0.15299999713897705,0.0989999994635582,-0.5210000276565552,3,9
imu,1776824838.1293406,1243381257000,0.11439469456672668,2.05627703666687,-9.333529472351074,0.08554261177778244,-0.4954458177089691,-0.15077617764472961,40.421941,-86.9035621,200.988,-0.15299999713897705,0.0989999994635582,-0.5210000276565552,3,9
imu,1776824838.1391158,1243391257000,0.06755026429891586,1.8929052352905273,-9.9175443649292,0.05967126414179802,-0.4348589777946472,-0.06690508127212524,40.421941,-86.9035621,200.988,-0.15299999713897705,0.0989999994635582,-0.5210000276565552,3,9
imu,1776824838.149004,1243401257000,0.09884818643331528,1.5997567176818848,-9.927875518798828,0.03330688551068306,-0.33906999230384827,-0.07935334742069244,40.421941,-86.9035621,200.988,-0.15299999713897705,0.0989999994635582,-0.5210000276565552,3,9
imu,1776824838.1586492,1243411257000,0.321608304977417,1.6364331245422363,-9.609842300415039,0.03876689821481705,-0.3082190752029419,-0.07345737516880035,40.421941,-86.9035621,200.988,-0.15299999713897705,0.0989999994635582,-0.5210000276565552,3,9
imu,1776824838.1686115,1243421257000,0.23930582404136658,1.5064871311187744,-10.160294532775879,0.07044294476509094,-0.25936079025268555,-0.04338179528713226,40.421941,-86.9035621,200.988,-0.15299999713897705,0.0989999994635582,-0.5210000276565552,3,9
imu,1776824838.1785219,1243431257000,0.22037993371486664,1.2031970024108887,-10.653914451599121,0.05527465045452118,-0.1477149873971939,-0.030389780178666115,40.421941,-86.9035621,200.988,-0.15299999713897705,0.0989999994635582,-0.5210000276565552,3,9
imu,1776824838.188236,1243441257000,0.13375523686408997,1.4567694664001465,-10.735920906066895,0.10647648572921753,-0.024873442947864532,-0.026737261563539505,40.421941,-86.9035621,200.988,-0.15299999713897705,0.0989999994635582,-0.5210000276565552,3,9
imu,1776824838.197945,1243451257000,0.25815701484680176,2.0661022663116455,-10.739623069763184,0.16088806092739105,0.05487455055117607,0.07615267485380173,40.421941,-86.9035621,200.988,-0.15299999713897705,0.0989999994635582,-0.5210000276565552,3,9
imu,1776824838.2087739,1243461257000,0.5288692712783813,2.5044097900390625,-9.926225662231445,0.22698049247264862,-0.007439763285219669,0.23648588359355927,40.421941,-86.9035621,200.988,-0.15299999713897705,0.0989999994635582,-0.5210000276565552,3,9
imu,1776824838.2185888,1243471257000,0.29818207025527954,2.59067702293396,-9.908554077148438,0.310069739818573,-0.017258968204259872,0.3979831635951996,40.421941,-86.9035621,200.988,-0.15299999713897705,0.0989999994635582,-0.5210000276565552,3,9
imu,1776824838.2284012,1243481257000,0.17022699117660522,2.3697426319122314,-9.767386436462402,0.31858596205711365,-0.027790173888206482,0.5335661172866821,40.421941,-86.9035621,200.988,-0.15299999713897705,0.0989999994635582,-0.5210000276565552,3,9
imu,1776824838.2381442,1243491257000,0.039863068610429764,1.9540218114852905,-9.7134428024292,0.3191583752632141,-0.024946322664618492,0.5993622541427612,40.421941,-86.9035621,200.988,-0.15299999713897705,0.0989999994635582,-0.5210000276565552,3,9
imu,1776824838.2479959,1243501257000,-0.17606288194656372,1.5825179815292358,-9.874629974365234,0.3228628635406494,0.02163521572947502,0.6199129223823547,40.421941,-86.9035621,200.988,-0.15299999713897705,0.0989999994635582,-0.5210000276565552,3,9
imu,1776824838.2589338,1243511257000,-0.20466120541095734,1.2707054615020752,-9.835561752319336,0.2775021195411682,0.0929558277130127,0.5506307482719421,40.421941499999996,-86.90356039999999,200.9,-0.3230000138282776,0.24699999392032623,-0.3440000116825104,3,9
imu,1776824838.2676733,1243521257000,0.024227727204561234,1.2509102821350098,-9.342413902282715,0.21275515854358673,-0.05082273110747337,0.5044794678688049,40.421941499999996,-86.90356039999999,200.9,-0.3230000138282776,0.24699999392032623,-0.3440000116825104,3,9
imu,1776824838.277273,1243531257000,-0.16482941806316376,1.510002613067627,-9.061914443969727,0.18445242941379547,-0.22198183834552765,0.5457640886306763,40.421941499999996,-86.90356039999999,200.9,-0.3230000138282776,0.24699999392032623,-0.3440000116825104,3,9
imu,1776824838.2870345,1243541257000,-0.13511867821216583,1.8324568271636963,-9.952554702758789,0.21520249545574188,-0.26661425828933716,0.6649249792098999,40.421941499999996,-86.90356039999999,200.9,-0.3230000138282776,0.24699999392032623,-0.3440000116825104,3,9
imu,1776824838.297862,1243551257000,-0.07716774940490723,1.6071453094482422,-9.986305236816406,0.21911126375198364,-0.21886640787124634,0.7989541292190552,40.421941499999996,-86.90356039999999,200.9,-0.3230000138282776,0.24699999392032623,-0.3440000116825104,3,9
imu,1776824838.3077457,1243561257000,0.07912243902683258,1.6792032718658447,-10.110346794128418,0.24891534447669983,-0.2346598356962204,0.8522757291793823,40.421941499999996,-86.90356039999999,200.9,-0.3230000138282776,0.24699999392032623,-0.3440000116825104,3,9
imu,1776824838.317062,1243571257000,0.389818012714386,1.9462511539459229,-10.306632995605469,0.23982976377010345,-0.2227848619222641,0.911765456199646,40.421941499999996,-86.90356039999999,200.9,-0.3230000138282776,0.24699999392032623,-0.3440000116825104,3,9
imu,1776824838.3269813,1243581257000,0.5400747656822205,2.2064783573150635,-10.561400413513184,0.2178744077682495,-0.17553141713142395,0.9861399531364441,40.421941499999996,-86.90356039999999,200.9,-0.3230000138282776,0.24699999392032623,-0.3440000116825104,3,9
imu,1776824838.3367622,1243591257000,0.5546088218688965,2.4545154571533203,-10.528120040893555,0.2310473471879959,-0.12172789871692657,1.096709132194519,40.421941499999996,-86.90356039999999,200.9,-0.3230000138282776,0.24699999392032623,-0.3440000116825104,3,9
imu,1776824838.3469741,1243601257000,0.4326343536376953,2.122892379760742,-10.5077543258667,0.2468603253364563,-0.07584093511104584,1.2337512969970703,40.421941499999996,-86.90356039999999,200.9,-0.3230000138282776,0.24699999392032623,-0.3440000116825104,3,9
imu,1776824838.356833,1243611257000,0.2628891170024872,1.6754794120788574,-10.325156211853027,0.2664516568183899,-0.022254224866628647,1.3081421852111816,40.421941499999996,-86.90356039999999,200.9,-0.3230000138282776,0.24699999392032623,-0.3440000116825104,3,9
imu,1776824838.3667355,1243621257000,-0.1841413378715515,1.1549770832061768,-10.581572532653809,0.3087522089481354,0.10989024490118027,1.2996065616607666,40.421941499999996,-86.90356039999999,200.9,-0.3230000138282776,0.24699999392032623,-0.3440000116825104,3,9
imu,1776824838.376461,1243631257000,0.05684057995676994,0.7562205791473389,-9.529894828796387,0.2252388596534729,0.11243745684623718,1.222686767578125,40.421941499999996,-86.90356039999999,200.9,-0.3230000138282776,0.24699999392032623,-0.3440000116825104,3,9
imu,1776824838.386139,1243641257000,-0.015396772883832455,0.6651895642280579,-8.86585807800293,0.16940560936927795,-0.03303349390625954,1.2001869678497314,40.421941499999996,-86.90356039999999,200.9,-0.3230000138282776,0.24699999392032623,-0.3440000116825104,3,9
imu,1776824838.3959951,1243651257000,-0.16785553097724915,0.48967161774635315,-9.496965408325195,0.16990777850151062,-0.1828104555606842,1.1731269359588623,40.421941499999996,-86.90356039999999,200.9,-0.3230000138282776,0.24699999392032623,-0.3440000116825104,3,9
imu,1776824838.40698,1243661257000,-0.1337580680847168,0.6312218308448792,-9.703266143798828,0.1731685847043991,-0.1798398196697235,1.170486330986023,40.421941499999996,-86.90356039999999,200.9,-0.3230000138282776,0.24699999392032623,-0.3440000116825104,3,9
imu,1776824838.4166625,1243671257000,-0.06032479181885719,0.7046882510185242,-9.526719093322754,0.197333425283432,-0.20880897343158722,1.1690682172775269,40.421941499999996,-86.90356039999999,200.9,-0.3230000138282776,0.24699999392032623,-0.3440000116825104,3,9
imu,1776824838.4264102,1243681257000,0.0844995304942131,0.9865297675132751,-9.438745498657227,0.17376619577407837,-0.2507193088531494,1.1675825119018555,40.421941499999996,-86.90356039999999,200.9,-0.3230000138282776,0.24699999392032623,-0.3440000116825104,3,9
imu,1776824838.4362,1243691257000,0.328153133392334,1.22025728225708,-9.863834381103516,0.1574416309595108,-0.27812403440475464,1.1717435121536255,40.421941499999996,-86.90356039999999,200.9,-0.3230000138282776,0.24699999392032623,-0.3440000116825104,3,9
imu,1776824838.446042,1243701257000,0.3118528723716736,1.421781301498413,-10.6753568649292,0.18693406879901886,-0.12845724821090698,1.204938292503357,40.421941499999996,-86.90356039999999,200.9,-0.3230000138282776,0.24699999392032623,-0.3440000116825104,3,9
imu,1776824838.4557073,1243711257000,0.33533674478530884,1.2587201595306396,-10.544337272644043,0.1649540215730667,0.030696572735905647,1.2043976783752441,40.421941499999996,-86.90356039999999,200.9,-0.3230000138282776,0.24699999392032623,-0.3440000116825104,3,9
imu,1776824838.4657047,1243721257000,0.4652814269065857,1.0808367729187012,-10.040014266967773,0.1667517125606537,-0.06097577512264252,1.2587246894836426,40.421941499999996,-86.90356039999999,200.9,-0.3230000138282776,0.24699999392032623,-0.3440000116825104,3,9
imu,1776824838.4753013,1243731257000,0.6134494543075562,1.0832226276397705,-9.931415557861328,0.17564800381660461,-0.1846836805343628,1.3436373472213745,40.421941499999996,-86.90356039999999,200.9,-0.3230000138282776,0.24699999392032623,-0.3440000116825104,3,9
imu,1776824838.4849744,1243741257000,0.4165527820587158,1.0621297359466553,-10.437875747680664,0.20525288581848145,-0.12344665080308914,1.4601597785949707,40.421941499999996,-86.90356039999999,200.9,-0.3230000138282776,0.24699999392032623,-0.3440000116825104,3,9
imu,1776824838.4949884,1243751257000,0.26550203561782837,0.5290944576263428,-10.302549362182617,0.23164494335651398,-0.05119533836841583,1.506751537322998,40.421941499999996,-86.90356039999999,200.9,-0.3230000138282776,0.24699999392032623,-0.3440000116825104,3,9
imu,1776824838.5049357,1243761257000,0.21493344008922577,0.21115389466285706,-10.310296058654785,0.21891693770885468,0.028800707310438156,1.475403070449829,40.421941499999996,-86.90356039999999,200.9,-0.3230000138282776,0.24699999392032623,-0.3440000116825104,3,9
imu,1776824838.5157323,1243771257000,-0.05701978877186775,0.12087815254926682,-10.265630722045898,0.23972256481647491,0.1089545413851738,1.4376823902130127,40.421941499999996,-86.90356039999999,200.9,-0.3230000138282776,0.24699999392032623,-0.3440000116825104,3,9
imu,1776824838.525373,1243781257000,-0.23777616024017334,0.20971271395683289,-9.940670013427734,0.2866935133934021,0.13281039893627167,1.4184799194335938,40.421941499999996,-86.90356039999999,200.9,-0.3230000138282776,0.24699999392032623,-0.3440000116825104,3,9
imu,1776824838.5352716,1243791257000,-0.3571496307849884,0.5195521116256714,-9.36467170715332,0.32559460401535034,0.08392085880041122,1.4587037563323975,40.421941499999996,-86.90356039999999,200.9,-0.3230000138282776,0.24699999392032623,-0.3440000116825104,3,9
imu,1776824838.5451918,1243801257000,-0.39078617095947266,0.8865171074867249,-9.18349838256836,0.34846261143684387,-0.0016586573328822851,1.5030170679092407,40.421941499999996,-86.90356039999999,200.9,-0.3230000138282776,0.24699999392032623,-0.3440000116825104,3,9
imu,1776824838.55496,1243811257000,-0.4400923252105713,1.0081777572631836,-9.222925186157227,0.33750036358833313,-0.05866279453039169,1.5838017463684082,40.421941499999996,-86.90356039999999,200.9,-0.3230000138282776,0.24699999392032623,-0.3440000116825104,3,9
imu,1776824838.5645535,1243821257000,-0.326642781496048,0.9690507054328918,-9.298322677612305,0.3181169033050537,-0.10526689887046814,1.5950267314910889,40.421941499999996,-86.90356039999999,200.9,-0.3230000138282776,0.24699999392032623,-0.3440000116825104,3,9
imu,1776824838.5744407,1243831257000,-0.21037925779819489,0.7083602547645569,-9.534157752990723,0.29671818017959595,-0.10033047199249268,1.6249217987060547,40.421941499999996,-86.90356039999999,200.9,-0.3230000138282776,0.24699999392032623,-0.3440000116825104,3,9
imu,1776824838.58414,1243841257000,-0.5386501550674438,0.46035894751548767,-9.790328979492188,0.30430641770362854,0.0873977467417717,1.597834825515747,40.421941499999996,-86.90356039999999,200.9,-0.3230000138282776,0.24699999392032623,-0.3440000116825104,3,9
imu,1776824838.5949857,1243851257000,-0.2679292857646942,0.4098787009716034,-9.620179176330566,0.2664377689361572,0.18712995946407318,1.5113525390625,40.421941499999996,-86.90356039999999,200.9,-0.3230000138282776,0.24699999392032623,-0.3440000116825104,3,9
imu,1776824838.6048214,1243861257000,-0.1939670294523239,0.7067515850067139,-9.676092147827148,0.20733031630516052,0.03962312266230583,1.521234154701233,40.421941499999996,-86.90356039999999,200.9,-0.3230000138282776,0.24699999392032623,-0.3440000116825104,3,9
imu,1776824838.6149046,1243871257000,-0.13906271755695343,0.7891935110092163,-9.913434982299805,0.19068124890327454,-0.07679979503154755,1.5952550172805786,40.421941499999996,-86.90356039999999,200.9,-0.3230000138282776,0.24699999392032623,-0.3440000116825104,3,9
imu,1776824838.6246736,1243881257000,-0.03312290087342262,0.7806199789047241,-10.573333740234375,0.1983543336391449,0.11242686212062836,1.6543898582458496,40.421941499999996,-86.90356039999999,200.9,-0.3230000138282776,0.24699999392032623,-0.3440000116825104,3,9
imu,1776824838.634069,1243891257000,0.09658222645521164,0.6187329292297363,-10.167305946350098,0.1942559778690338,0.16620969772338867,1.7061785459518433,40.421941499999996,-86.90356039999999,200.9,-0.3230000138282776,0.24699999392032623,-0.3440000116825104,3,9
imu,1776824838.6438205,1243901257000,0.15648551285266876,0.699878454208374,-10.159966468811035,0.23885853588581085,0.17065396904945374,1.7794437408447266,40.421941499999996,-86.90356039999999,200.9,-0.3230000138282776,0.24699999392032623,-0.3440000116825104,3,9
imu,1776824838.6546261,1243911257000,0.15312162041664124,0.37557435035705566,-10.31417179107666,0.296517014503479,0.22769169509410858,1.8328242301940918,40.421941499999996,-86.90356039999999,200.9,-0.3230000138282776,0.24699999392032623,-0.3440000116825104,3,9
imu,1776824838.663341,1243921257000,0.20429958403110504,0.2828534245491028,-10.259750366210938,0.32958513498306274,0.3105197846889496,1.8512526750564575,40.421941499999996,-86.90356039999999,200.9,-0.3230000138282776,0.24699999392032623,-0.3440000116825104,3,9
imu,1776824838.6731102,1243931257000,0.3017001450061798,0.38694697618484497,-9.980425834655762,0.30967721343040466,0.3674779534339905,1.863908290863037,40.421941499999996,-86.90356039999999,200.9,-0.3230000138282776,0.24699999392032623,-0.3440000116825104,3,9
imu,1776824838.684114,1243941257000,0.29936525225639343,0.3987641930580139,-9.941726684570312,0.26083680987358093,0.3406418561935425,1.8436468839645386,40.421941499999996,-86.90356039999999,200.9,-0.3230000138282776,0.24699999392032623,-0.3440000116825104,3,9
imu,1776824838.6937573,1243951257000,0.2698683440685272,0.5182559490203857,-9.788448333740234,0.252280592918396,0.2898705005645752,1.8640660047531128,40.421941499999996,-86.90356039999999,200.9,-0.3230000138282776,0.24699999392032623,-0.3440000116825104,3,9
imu,1776824838.7033732,1243961257000,0.1353396326303482,0.3370189964771271,-9.990057945251465,0.24512679874897003,0.2676369249820709,1.8907313346862793,40.421941499999996,-86.90356039999999,200.9,-0.3230000138282776,0.24699999392032623,-0.3440000116825104,3,9
imu,1776824838.713074,1243971257000,0.22505612671375275,0.0885460302233696,-9.95372200012207,0.2472916692495346,0.27296826243400574,1.886189579963684,40.421941499999996,-86.90356039999999,200.9,-0.3230000138282776,0.24699999392032623,-0.3440000116825104,3,9
imu,1776824838.7227807,1243981257000,0.43214747309684753,0.033233433961868286,-9.991865158081055,0.22769898176193237,0.26188400387763977,1.8577805757522583,40.421941499999996,-86.90356039999999,200.9,-0.3230000138282776,0.24699999392032623,-0.3440000116825104,3,9
imu,1776824838.7326221,1243991257000,0.6052182912826538,0.26775139570236206,-10.407118797302246,0.24978867173194885,0.29087767004966736,1.8580330610275269,40.421941499999996,-86.90356039999999,200.9,-0.3230000138282776,0.24699999392032623,-0.3440000116825104,3,9
imu,1776824838.7424605,1244001257000,0.8859081864356995,0.39992138743400574,-10.621686935424805,0.25563448667526245,0.35109513998031616,1.8662075996398926,40.421941499999996,-86.90356039999999,200.9,-0.3230000138282776,0.24699999392032623,-0.3440000116825104,3,9
imu,1776824838.754572,1244011257000,1.0779693126678467,0.8013882637023926,-10.61613655090332,0.3012613356113434,0.40400612354278564,1.9405157566070557,40.4219413,-86.9035585,200.817,-0.45100000500679016,0.17499999701976776,-0.5,3,9
imu,1776824838.7631633,1244021257000,1.116965413093567,0.9369075894355774,-10.519698143005371,0.3216669261455536,0.5012118220329285,2.0640010833740234,40.4219413,-86.9035585,200.817,-0.45100000500679016,0.17499999701976776,-0.5,3,9
imu,1776824838.7730494,1244031257000,1.0750960111618042,0.6339889764785767,-10.078413009643555,0.3933563828468323,0.5219213366508484,2.1406071186065674,40.4219413,-86.9035585,200.817,-0.45100000500679016,0.17499999701976776,-0.5,3,9
imu,1776824838.7827728,1244041257000,0.8335771560668945,0.292938768863678,-9.847702980041504,0.4256504476070404,0.5047574639320374,2.2249915599823,40.4219413,-86.9035585,200.817,-0.45100000500679016,0.17499999701976776,-0.5,3,9
imu,1776824838.7925014,1244051257000,0.7703770995140076,-0.6367669701576233,-9.795428276062012,0.46514156460762024,0.48520222306251526,2.2440054416656494,40.4219413,-86.9035585,200.817,-0.45100000500679016,0.17499999701976776,-0.5,3,9
imu,1776824838.8021452,1244061257000,0.6915886998176575,-1.1987242698669434,-9.790669441223145,0.4394361078739166,0.5259631872177124,2.1521897315979004,40.4219413,-86.9035585,200.817,-0.45100000500679016,0.17499999701976776,-0.5,3,9
imu,1776824838.8118525,1244071257000,0.8743283152580261,-0.8179888129234314,-9.28679084777832,0.3992537558078766,0.44373831152915955,2.034804344177246,40.4219413,-86.9035585,200.817,-0.45100000500679016,0.17499999701976776,-0.5,3,9
imu,1776824838.8217034,1244081257000,1.0519673824310303,-0.39914190769195557,-9.664000511169434,0.35093575716018677,0.45316261053085327,2.0259134769439697,40.4219413,-86.9035585,200.817,-0.45100000500679016,0.17499999701976776,-0.5,3,9
imu,1776824838.8315227,1244091257000,1.2104063034057617,-0.5272502899169922,-9.757233619689941,0.24564805626869202,0.5383572578430176,1.9850825071334839,40.4219413,-86.9035585,200.817,-0.45100000500679016,0.17499999701976776,-0.5,3,9
imu,1776824838.8424094,1244101257000,1.623353123664856,0.04905927553772926,-9.462187767028809,0.05678556486964226,0.5001634359359741,2.055467367172241,40.4219413,-86.9035585,200.817,-0.45100000500679016,0.17499999701976776,-0.5,3,9
imu,1776824838.8521323,1244111257000,1.3082256317138672,0.3041693866252899,-9.865320205688477,0.00668499618768692,0.3659130930900574,2.1209592819213867,40.4219413,-86.9035585,200.817,-0.45100000500679016,0.17499999701976776,-0.5,3,9
imu,1776824838.8620195,1244121257000,1.372025728225708,-0.3712100386619568,-9.912064552307129,0.08920634537935257,0.38607025146484375,2.243941068649292,40.4219413,-86.9035585,200.817,-0.45100000500679016,0.17499999701976776,-0.5,3,9
imu,1776824838.8717911,1244131257000,1.4191898107528687,-0.5767792463302612,-10.423630714416504,0.09837653487920761,0.44250375032424927,2.277514696121216,40.4219413,-86.9035585,200.817,-0.45100000500679016,0.17499999701976776,-0.5,3,9
imu,1776824838.8815105,1244141257000,1.4753162860870361,-0.42719122767448425,-10.237159729003906,0.030440660193562508,0.5183952450752258,2.342855453491211,40.4219413,-86.9035585,200.817,-0.45100000500679016,0.17499999701976776,-0.5,3,9
imu,1776824838.8912199,1244151257000,1.5181951522827148,-0.2825608253479004,-10.251978874206543,0.10585051029920578,0.5135363340377808,2.3178813457489014,40.4219413,-86.9035585,200.817,-0.45100000500679016,0.17499999701976776,-0.5,3,9
imu,1776824838.9010084,1244161257000,1.508648157119751,-0.4534420073032379,-10.009499549865723,0.26245999336242676,0.42225757241249084,2.3610594272613525,40.4219413,-86.9035585,200.817,-0.45100000500679016,0.17499999701976776,-0.5,3,9
imu,1776824838.9107804,1244171257000,1.2863553762435913,-0.9241452813148499,-10.154438018798828,0.3114922344684601,0.2886991500854492,2.415649890899658,40.4219413,-86.9035585,200.817,-0.45100000500679016,0.17499999701976776,-0.5,3,9
imu,1776824838.921575,1244181257000,1.567230224609375,-2.132859468460083,-10.3058500289917,0.28615474700927734,0.2499433308839798,2.391868829727173,40.4219413,-86.9035585,200.817,-0.45100000500679016,0.17499999701976776,-0.5,3,9
imu,1776824838.9314399,1244191257000,1.5247972011566162,-2.3658101558685303,-10.054566383361816,0.2629584074020386,0.14583614468574524,2.320937395095825,40.4219413,-86.9035585,200.817,-0.45100000500679016,0.17499999701976776,-0.5,3,9
imu,1776824838.9406352,1244201257000,1.501389503479004,-2.7329423427581787,-10.585660934448242,0.3262348771095276,0.15656504034996033,2.271291732788086,40.4219413,-86.9035585,200.817,-0.45100000500679016,0.17499999701976776,-0.5,3,9
imu,1776824838.9506264,1244211257000,1.4795348644256592,-3.139509439468384,-10.521002769470215,0.29534658789634705,0.254412442445755,2.142040967941284,40.4219413,-86.9035585,200.817,-0.45100000500679016,0.17499999701976776,-0.5,3,9
imu,1776824838.9605036,1244221257000,1.6576637029647827,-2.6270878314971924,-10.423988342285156,0.19483040273189545,0.29600659012794495,2.027434825897217,40.4219413,-86.9035585,200.817,-0.45100000500679016,0.17499999701976776,-0.5,3,9
imu,1776824838.9702141,1244231256000,1.6029661893844604,-1.9373396635055542,-9.69091510772705,0.06509412080049515,0.3170943558216095,2.0139193534851074,40.4219413,-86.9035585,200.817,-0.45100000500679016,0.17499999701976776,-0.5,3,9
imu,1776824838.9800549,1244241257000,1.1427476406097412,-2.663130044937134,-9.765300750732422,-0.08512133359909058,0.1886231005191803,1.9826022386550903,40.4219413,-86.9035585,200.817,-0.45100000500679016,0.17499999701976776,-0.5,3,9
imu,1776824838.9909112,1244251257000,1.4401010274887085,-3.0237443447113037,-10.271164894104004,-0.2050483077764511,0.2687909007072449,1.7796398401260376,40.4219413,-86.9035585,200.817,-0.45100000500679016,0.17499999701976776,-0.5,3,9
imu,1776824839.000563,1244261257000,1.4100431203842163,-2.326488733291626,-9.809720993041992,-0.24673843383789062,0.27977991104125977,1.7249929904937744,40.4219413,-86.9035585,200.817,-0.45100000500679016,0.17499999701976776,-0.5,3,9
imu,1776824839.0103521,1244271257000,0.9676831364631653,-2.7864339351654053,-9.498485565185547,-0.17475728690624237,0.19092418253421783,1.6987136602401733,40.4219413,-86.9035585,200.817,-0.45100000500679016,0.17499999701976776,-0.5,3,9
imu,1776824839.0200336,1244281257000,1.116635799407959,-3.1017918586730957,-9.264472961425781,-0.0379900299012661,0.004706783220171928,1.624108076095581,40.4219413,-86.9035585,200.817,-0.45100000500679016,0.17499999701976776,-0.5,3,9
imu,1776824839.029801,1244291257000,1.4123746156692505,-3.2775843143463135,-9.344496726989746,0.01763826794922352,-0.16051064431667328,1.5601459741592407,40.4219413,-86.9035585,200.817,-0.45100000500679016,0.17499999701976776,-0.5,3,9
imu,1776824839.0397172,1244301257000,1.6319208145141602,-2.8844428062438965,-9.458202362060547,0.022682104259729385,-0.24456974864006042,1.4805060625076294,40.4219413,-86.9035585,200.817,-0.45100000500679016,0.17499999701976776,-0.5,3,9
imu,1776824839.049422,1244311257000,1.4764059782028198,-2.3320858478546143,-9.4578275680542,-0.09175397455692291,-0.2295999825000763,1.486846923828125,40.4219413,-86.9035585,200.817,-0.45100000500679016,0.17499999701976776,-0.5,3,9
imu,1776824839.0592902,1244321257000,1.3064947128295898,-1.9076728820800781,-9.09442138671875,-0.12848930060863495,-0.2550804316997528,1.5071187019348145,40.4219413,-86.9035585,200.817,-0.45100000500679016,0.17499999701976776,-0.5,3,9
imu,1776824839.0700114,1244331257000,1.0678908824920654,-2.149763345718384,-9.250142097473145,-0.18583008646965027,-0.32178670167922974,1.5003308057785034,40.4219413,-86.9035585,200.817,-0.45100000500679016,0.17499999701976776,-0.5,3,9
imu,1776824839.079666,1244341257000,1.1052287817001343,-2.3878371715545654,-9.685309410095215,-0.31570175290107727,-0.2236984372138977,1.440533995628357,40.4219413,-86.9035585,200.817,-0.45100000500679016,0.17499999701976776,-0.5,3,9
imu,1776824839.08938,1244351257000,0.07639152556657791,-3.1563470363616943,-9.593643188476562,-0.4561226963996887,-0.06205055117607117,1.388563632965088,40.4219413,-86.9035585,200.817,-0.45100000500679016,0.17499999701976776,-0.5,3,9
imu,1776824839.0993152,1244361257000,0.3339695632457733,-4.824836254119873,-9.772705078125,-0.570930004119873,0.03512780740857124,1.1243923902511597,40.4219413,-86.9035585,200.817,-0.45100000500679016,0.17499999701976776,-0.5,3,9
imu,1776824839.1091669,1244371257000,0.3467276394367218,-4.442473888397217,-10.13967227935791,-0.581852376461029,0.1871461123228073,0.889323353767395,40.4219413,-86.9035585,200.817,-0.45100000500679016,0.17499999701976776,-0.5,3,9
imu,1776824839.1201773,1244381257000,0.6434086561203003,-3.912882089614868,-9.580015182495117,-0.5245492458343506,0.33675169944763184,0.7096378207206726,40.4219413,-86.9035585,200.817,-0.45100000500679016,0.17499999701976776,-0.5,3,9
imu,1776824839.1288688,1244391257000,0.7486615180969238,-3.3665804862976074,-9.203836441040039,-0.5856311321258545,0.2702904939651489,0.6127989888191223,40.4219413,-86.9035585,200.817,-0.45100000500679016,0.17499999701976776,-0.5,3,9
imu,1776824839.1386404,1244401257000,0.8790766000747681,-2.3950769901275635,-9.507547378540039,-0.6845384240150452,0.28626933693885803,0.5341343283653259,40.4219413,-86.9035585,200.817,-0.45100000500679016,0.17499999701976776,-0.5,3,9
imu,1776824839.1484764,1244411257000,0.9912554621696472,-1.5691626071929932,-9.352338790893555,-0.71001136302948,0.29492729902267456,0.5959027409553528,40.4219413,-86.9035585,200.817,-0.45100000500679016,0.17499999701976776,-0.5,3,9
imu,1776824839.1592672,1244421257000,1.2275887727737427,-0.6689958572387695,-9.469587326049805,-0.7896457314491272,0.2978229224681854,0.6902238726615906,40.4219413,-86.9035585,200.817,-0.45100000500679016,0.17499999701976776,-0.5,3,9
imu,1776824839.1689637,1244431257000,1.329189658164978,-0.13617084920406342,-9.827465057373047,-0.7381893992424011,0.30618008971214294,0.8519483208656311,40.4219413,-86.9035585,200.817,-0.45100000500679016,0.17499999701976776,-0.5,3,9
imu,1776824839.1788678,1244441257000,0.7727288603782654,-0.26956653594970703,-9.773228645324707,-0.5530797839164734,0.34223368763923645,1.0272724628448486,40.4219413,-86.9035585,200.817,-0.45100000500679016,0.17499999701976776,-0.5,3,9
imu,1776824839.1885958,1244451257000,0.4274768829345703,-1.9473228454589844,-9.66297721862793,-0.4725034236907959,0.3197747766971588,1.08927583694458,40.4219413,-86.9035585,200.817,-0.45100000500679016,0.17499999701976776,-0.5,3,9
imu,1776824839.1982334,1244461257000,0.4371233284473419,-2.917515754699707,-10.072766304016113,-0.48227939009666443,0.37852245569229126,0.9901775121688843,40.4219413,-86.9035585,200.817,-0.45100000500679016,0.17499999701976776,-0.5,3,9
imu,1776824839.2078779,1244471257000,0.5688372850418091,-3.214693307876587,-9.963512420654297,-0.38487914204597473,0.5174338817596436,0.8194481730461121,40.4219413,-86.9035585,200.817,-0.45100000500679016,0.17499999701976776,-0.5,3,9
imu,1776824839.2177215,1244481257000,0.604763925075531,-2.432910919189453,-9.581993103027344,-0.2527524530887604,0.6149880886077881,0.7423036694526672,40.4219413,-86.9035585,200.817,-0.45100000500679016,0.17499999701976776,-0.5,3,9
imu,1776824839.2275214,1244491257000,0.651423454284668,-2.215879440307617,-9.006434440612793,-0.21010275185108185,0.6110247373580933,0.6532120108604431,40.4219413,-86.9035585,200.817,-0.45100000500679016,0.17499999701976776,-0.5,3,9
imu,1776824839.2382882,1244501257000,0.8735993504524231,-1.2788926362991333,-9.102150917053223,-0.27120599150657654,0.5129520297050476,0.6922733783721924,40.4219413,-86.9035585,200.817,-0.45100000500679016,0.17499999701976776,-0.5,3,9
imu,1776824839.250193,1244511257000,1.2075937986373901,-0.7272433042526245,-9.03169059753418,-0.3664703071117401,0.5211447477340698,0.7407163977622986,40.421941,-86.9035573,200.739,-0.2370000034570694,0.26600000262260437,-0.4659999907016754,3,9
imu,1776824839.2575161,1244521257000,0.8194894194602966,-0.402505487203598,-8.801229476928711,-0.4176104962825775,0.5108544230461121,0.9013867974281311,40.421941,-86.9035573,200.739,-0.2370000034570694,0.26600000262260437,-0.4659999907016754,3,9
imu,1776824839.2674847,1244531257000,0.40650448203086853,-0.7852169871330261,-8.61909294128418,-0.37574243545532227,0.4762424826622009,1.0542240142822266,40.421941,-86.9035573,200.739,-0.2370000034570694,0.26600000262260437,-0.4659999907016754,3,9
imu,1776824839.2774484,1244541257000,0.5831761956214905,-1.957073450088501,-8.938089370727539,-0.31907734274864197,0.3271780014038086,1.0513265132904053,40.421941,-86.9035573,200.739,-0.2370000034570694,0.26600000262260437,-0.4659999907016754,3,9
imu,1776824839.2875264,1244551257000,0.6258323192596436,-2.328763961791992,-9.482645034790039,-0.21944329142570496,0.2984899580478668,0.9420360326766968,40.421941,-86.9035573,200.739,-0.2370000034570694,0.26600000262260437,-0.4659999907016754,3,9
imu,1776824839.297295,1244561257000,0.30193328857421875,-2.0901477336883545,-9.205390930175781,-0.13820914924144745,0.34099969267845154,0.8582791090011597,40.421941,-86.9035573,200.739,-0.2370000034570694,0.26600000262260437,-0.4659999907016754,3,9
imu,1776824839.3081357,1244571257000,0.22970879077911377,-2.295132875442505,-8.6892671585083,-0.17446765303611755,0.28483474254608154,0.7844138145446777,40.421941,-86.9035573,200.739,-0.2370000034570694,0.26600000262260437,-0.4659999907016754,3,9
imu,1776824839.3168473,1244581257000,0.38934391736984253,-2.240762710571289,-8.726509094238281,-0.21084029972553253,0.18062551319599152,0.7458840608596802,40.421941,-86.9035573,200.739,-0.2370000034570694,0.26600000262260437,-0.4659999907016754,3,9
imu,1776824839.326571,1244591257000,-0.07733553647994995,-2.063782215118408,-8.505271911621094,-0.26636117696762085,0.1312757432460785,0.7573564648628235,40.421941,-86.9035573,200.739,-0.2370000034570694,0.26600000262260437,-0.4659999907016754,3,9
imu,1776824839.3364406,1244601257000,0.38706880807876587,-1.062968373298645,-7.412609100341797,-0.6252493262290955,0.14810387790203094,0.6703360676765442,40.421941,-86.9035573,200.739,-0.2370000034570694,0.26600000262260437,-0.4659999907016754,3,9
imu,1776824839.3473005,1244611257000,0.14831776916980743,-1.4500458240509033,-7.558833122253418,-0.6041147708892822,-0.17871792614459991,0.9053446650505066,40.421941,-86.9035573,200.739,-0.2370000034570694,0.26600000262260437,-0.4659999907016754,3,9
imu,1776824839.357181,1244621257000,0.15354394912719727,-1.3711491823196411,-7.627551555633545,-0.6372224688529968,-0.448233038187027,0.9861897230148315,40.421941,-86.9035573,200.739,-0.2370000034570694,0.26600000262260437,-0.4659999907016754,3,9
imu,1776824839.3671122,1244631257000,0.12515968084335327,-0.8114873766899109,-7.521834373474121,-0.5782310962677002,-0.8721942901611328,1.2509729862213135,40.421941,-86.9035573,200.739,-0.2370000034570694,0.26600000262260437,-0.4659999907016754,3,9
imu,1776824839.3768055,1244641257000,-0.1872597634792328,-1.46923828125,-8.694292068481445,-0.594667911529541,-1.1221599578857422,1.4389643669128418,40.421941,-86.9035573,200.739,-0.2370000034570694,0.26600000262260437,-0.4659999907016754,3,9
imu,1776824839.3877356,1244651257000,-0.9164313673973083,-1.9989709854125977,-8.922216415405273,-0.329642117023468,-1.157299518585205,1.3677741289138794,40.421941,-86.9035573,200.739,-0.2370000034570694,0.26600000262260437,-0.4659999907016754,3,9
imu,1776824839.3975308,1244661257000,-1.0190391540527344,-3.3196535110473633,-9.007266998291016,0.0014285482466220856,-1.3042649030685425,1.2205454111099243,40.421941,-86.9035573,200.739,-0.2370000034570694,0.26600000262260437,-0.4659999907016754,3,9
imu,1776824839.407215,1244671257000,-0.620288610458374,-2.747997760772705,-8.915974617004395,0.1675446480512619,-1.5947816371917725,1.0447145700454712,40.421941,-86.9035573,200.739,-0.2370000034570694,0.26600000262260437,-0.4659999907016754,3,9
